// General information: 
//  MT Manager version: 2020.3.0 
//  XDA version: 2020.3.0 build 5439 rev 106958 built on 2020-11-10
// Device information: 
//  DeviceId: 00B46A09
//  ProductCode: MTW2-3A7G6
//  Firmware Version: 4.4.0
//  Hardware Version: 2.0.0
// Device settings: 
//  Filter Profile: human(46.1)
//  Option Flags: Orientation Smoother Disabled, Position/Velocity Smoother Disabled, Continuous Zero Rotation Update Disabled, AHS Disabled, ICC Disabled
// Coordinate system: ENU
PacketCounter,StatusWord,ClippingFlags,RSSI,Acc_X,Acc_Y,Acc_Z,FreeAcc_E,FreeAcc_N,FreeAcc_U,Gyr_X,Gyr_Y,Gyr_Z,Mag_X,Mag_Y,Mag_Z,VelInc_X,VelInc_Y,VelInc_Z,OriInc_q0,OriInc_q1,OriInc_q2,OriInc_q3,Quat_q0,Quat_q1,Quat_q2,Quat_q3,Roll,Pitch,Yaw,Mat[1][1],Mat[2][1],Mat[3][1],Mat[1][2],Mat[2][2],Mat[3][2],Mat[1][3],Mat[2][3],Mat[3][3]
30829,2,0,-57.0000,9.642156,0.522051,-1.798874,0.020560,0.068418,0.009459,0.030183,-0.001002,-0.018268,0.338485,0.370950,-1.154061,0.096422,0.005214,-0.017987,1.000000,0.000151,-0.000005,-0.000091,0.999992,0.003572,0.001711,-0.000327,0.409288,0.196242,-0.036804,0.999994,-0.000642,-0.003425,0.000667,0.999974,0.007143,0.003420,-0.007146,0.999969
30830,2,0,-58.0000,9.615502,0.545114,-1.794205,0.012707,0.046480,-0.016163,0.031527,-0.002816,-0.024667,0.335685,0.371058,-1.152279,0.096156,0.005442,-0.017940,1.000000,0.000158,-0.000014,-0.000123,0.999992,0.003503,0.001768,-0.000161,0.401362,0.202705,-0.017775,0.999994,-0.000310,-0.003538,0.000335,0.999975,0.007005,0.003536,-0.007006,0.999969
30831,2,0,-58.0000,9.657566,0.617169,-1.754122,0.033878,-0.033866,0.022155,0.027611,0.000498,-0.024098,0.344471,0.373475,-1.149991,0.096576,0.006162,-0.017541,1.000000,0.000138,0.000002,-0.000120,0.999992,0.003426,0.001809,-0.000020,0.392574,0.207248,-0.001535,0.999993,-0.000027,-0.003617,0.000052,0.999977,0.006852,0.003617,-0.006852,0.999970
30832,2,0,-58.0000,9.616188,0.621492,-1.745265,0.033647,-0.039281,-0.019802,0.025951,-0.004416,-0.023620,0.339463,0.376867,-1.153752,0.096163,0.006206,-0.017450,1.000000,0.000130,-0.000022,-0.000118,0.999993,0.003357,0.001874,0.000132,0.384736,0.214708,0.015876,0.999993,0.000277,-0.003747,-0.000252,0.999977,0.006715,0.003749,-0.006714,0.999970
30833,2,0,-58.0000,9.645320,0.661314,-1.754274,0.018527,-0.072432,0.012862,0.025318,-0.004360,-0.021431,0.337886,0.370950,-1.157177,0.096454,0.006605,-0.017540,1.000000,0.000127,-0.000022,-0.000107,0.999993,0.003299,0.001932,0.000259,0.378057,0.221343,0.030384,0.999992,0.000530,-0.003863,-0.000505,0.999978,0.006598,0.003867,-0.006596,0.999971
30834,2,0,-58.0000,9.652727,0.664572,-1.721160,0.050433,-0.085802,0.014280,0.018378,-0.003508,-0.021278,0.337792,0.373435,-1.155668,0.096528,0.006637,-0.017209,1.000000,0.000092,-0.000018,-0.000106,0.999993,0.003232,0.001988,0.000359,0.370446,0.227651,0.041842,0.999992,0.000730,-0.003973,-0.000705,0.999979,0.006465,0.003978,-0.006463,0.999971
30835,2,0,-58.0000,9.667180,0.685312,-1.725928,0.042881,-0.102461,0.030610,0.009700,-0.005869,-0.018622,0.333585,0.375656,-1.157096,0.096673,0.006845,-0.017256,1.000000,0.000048,-0.000029,-0.000093,0.999993,0.003174,0.002049,0.000406,0.363821,0.234596,0.047221,0.999991,0.000824,-0.004094,-0.000798,0.999980,0.006350,0.004100,-0.006346,0.999971
30836,2,0,-58.0000,9.708181,0.684184,-1.735705,0.043187,-0.097352,0.072565,0.013376,-0.004097,-0.013104,0.339421,0.378724,-1.153495,0.097083,0.006837,-0.017355,1.000000,0.000067,-0.000020,-0.000066,0.999993,0.003141,0.002090,0.000455,0.360080,0.239346,0.052838,0.999991,0.000922,-0.004177,-0.000896,0.999980,0.006284,0.004183,-0.006281,0.999972
30837,2,0,-58.0000,9.676314,0.676335,-1.746030,0.030900,-0.085293,0.042710,0.006254,0.000781,-0.016188,0.338085,0.371551,-1.158707,0.096764,0.006756,-0.017460,1.000000,0.000031,0.000004,-0.000081,0.999993,0.003080,0.002116,0.000484,0.353051,0.242247,0.056256,0.999991,0.000982,-0.004228,-0.000956,0.999981,0.006162,0.004234,-0.006158,0.999972
30838,2,0,-58.0000,9.634055,0.607037,-1.786570,0.009794,-0.005247,0.004401,0.006538,-0.005571,-0.007690,0.336868,0.370519,-1.157479,0.096341,0.006067,-0.017863,1.000000,0.000033,-0.000028,-0.000038,0.999993,0.003068,0.002156,0.000508,0.351653,0.246937,0.058969,0.999990,0.001029,-0.004310,-0.001003,0.999981,0.006137,0.004316,-0.006133,0.999972
30839,2,0,-58.0000,9.631488,0.636730,-1.805655,-0.017633,-0.026170,0.007210,0.004620,-0.004761,-0.008421,0.341150,0.367298,-1.155071,0.096316,0.006364,-0.018054,1.000000,0.000023,-0.000024,-0.000042,0.999993,0.003050,0.002194,0.000521,0.349623,0.251272,0.060479,0.999990,0.001056,-0.004386,-0.001029,0.999981,0.006102,0.004392,-0.006097,0.999972
30840,2,0,-58.0000,9.638945,0.639058,-1.772661,0.014257,-0.039616,0.008627,0.003516,-0.008036,-0.008102,0.332626,0.373655,-1.160889,0.096390,0.006387,-0.017723,1.000000,0.000018,-0.000040,-0.000041,0.999993,0.003041,0.002247,0.000546,0.348623,0.257353,0.063350,0.999989,0.001106,-0.004492,-0.001078,0.999981,0.006085,0.004498,-0.006080,0.999971
30841,2,0,-58.0000,9.616518,0.619040,-1.802631,-0.010014,-0.010063,-0.009121,0.000793,-0.003456,-0.006239,0.339176,0.375669,-1.161155,0.096166,0.006187,-0.018025,1.000000,0.000004,-0.000017,-0.000031,0.999993,0.003027,0.002275,0.000539,0.347063,0.260564,0.062528,0.999989,0.001091,-0.004548,-0.001064,0.999981,0.006057,0.004554,-0.006052,0.999971
30842,2,0,-58.0000,9.633520,0.609681,-1.788552,0.009834,-0.005973,0.004401,-0.003677,-0.001776,-0.005516,0.333815,0.375656,-1.155897,0.096336,0.006094,-0.017885,1.000000,-0.000018,-0.000009,-0.000028,0.999993,0.003010,0.002292,0.000497,0.345108,0.262472,0.057713,0.999989,0.001007,-0.004581,-0.000980,0.999981,0.006023,0.004587,-0.006019,0.999971
30843,2,0,-58.0000,9.633425,0.610550,-1.788768,0.009853,-0.006138,0.004400,-0.003608,-0.003159,-0.011186,0.341828,0.372843,-1.154207,0.096335,0.006100,-0.017886,1.000000,-0.000018,-0.000016,-0.000056,0.999993,0.002969,0.002327,0.000472,0.340396,0.266525,0.054933,0.999989,0.000959,-0.004652,-0.000931,0.999982,0.005941,0.004657,-0.005937,0.999972
30844,2,0,-58.0000,9.626299,0.594081,-1.751145,0.049305,-0.003028,-0.010513,-0.001769,-0.002272,-0.008428,0.336295,0.378432,-1.155380,0.096263,0.005937,-0.017510,1.000000,-0.000009,-0.000011,-0.000042,0.999993,0.002941,0.002353,0.000452,0.337106,0.269533,0.052630,0.999989,0.000919,-0.004704,-0.000891,0.999982,0.005884,0.004710,-0.005879,0.999972
30845,2,0,-58.0000,9.672599,0.623422,-1.745342,0.054051,-0.031921,0.035668,-0.003792,0.000863,-0.014421,0.341418,0.366782,-1.149901,0.096726,0.006227,-0.017454,1.000000,-0.000019,0.000004,-0.000072,0.999993,0.002878,0.002376,0.000431,0.329879,0.272071,0.050216,0.999988,0.000876,-0.004749,-0.000849,0.999983,0.005757,0.004753,-0.005753,0.999972
30846,2,0,-58.0000,9.626124,0.596375,-1.751325,0.049360,-0.003362,-0.010513,-0.002321,-0.003910,-0.008269,0.339099,0.371582,-1.160394,0.096262,0.005960,-0.017511,1.000000,-0.000012,-0.000020,-0.000041,0.999993,0.002853,0.002410,0.000417,0.327010,0.276038,0.048600,0.999988,0.000848,-0.004818,-0.000821,0.999983,0.005707,0.004823,-0.005703,0.999972
30847,2,0,-58.0000,9.611334,0.578410,-1.747538,0.056955,0.012966,-0.026842,0.002770,-0.005336,-0.014822,0.343516,0.371905,-1.158758,0.096114,0.005777,-0.017473,1.000000,0.000014,-0.000027,-0.000074,0.999993,0.002805,0.002462,0.000427,0.321517,0.281964,0.049704,0.999988,0.000867,-0.004921,-0.000840,0.999984,0.005611,0.004926,-0.005607,0.999972
30848,2,0,-58.0000,9.630059,0.556478,-1.786877,0.033025,0.047736,-0.002628,0.010446,-0.008573,-0.011897,0.336033,0.374346,-1.155578,0.096302,0.005560,-0.017864,1.000000,0.000052,-0.000043,-0.000059,0.999993,0.002785,0.002524,0.000493,0.319314,0.289122,0.057307,0.999987,0.001000,-0.005046,-0.000972,0.999984,0.005573,0.005052,-0.005568,0.999972
30849,2,0,-58.0000,9.615462,0.626963,-1.805524,-0.009875,-0.011420,-0.009123,0.012916,-0.007746,-0.011325,0.341672,0.375785,-1.153928,0.096156,0.006265,-0.018051,1.000000,0.000065,-0.000039,-0.000057,0.999993,0.002767,0.002581,0.000549,0.317263,0.295614,0.063677,0.999986,0.001111,-0.005159,-0.001083,0.999984,0.005537,0.005165,-0.005532,0.999971
30850,2,0,-58.0000,9.688199,0.634458,-1.805432,0.002765,-0.018555,0.062685,0.012836,-0.006048,-0.009298,0.341351,0.374758,-1.159087,0.096883,0.006341,-0.018051,1.000000,0.000064,-0.000030,-0.000046,0.999993,0.002755,0.002627,0.000601,0.315854,0.300807,0.069717,0.999985,0.001217,-0.005250,-0.001188,0.999984,0.005513,0.005257,-0.005506,0.999971
30851,2,0,-58.0000,9.653830,0.655065,-1.834696,-0.036969,-0.027231,0.035640,0.007170,-0.005634,-0.009873,0.337231,0.371179,-1.161029,0.096539,0.006547,-0.018344,1.000000,0.000036,-0.000028,-0.000049,0.999992,0.002734,0.002671,0.000628,0.313516,0.305893,0.072778,0.999985,0.001270,-0.005339,-0.001241,0.999984,0.005472,0.005346,-0.005465,0.999971
30852,2,0,-57.0000,9.639059,0.636714,-1.830940,-0.029390,-0.010935,0.019312,0.002068,-0.003894,-0.006964,0.336185,0.381375,-1.154861,0.096391,0.006364,-0.018307,1.000000,0.000010,-0.000019,-0.000035,0.999992,0.002721,0.002702,0.000633,0.312001,0.309381,0.073402,0.999985,0.001281,-0.005400,-0.001252,0.999984,0.005445,0.005407,-0.005438,0.999971
30853,2,0,-57.0000,9.668271,0.675425,-1.839471,-0.044526,-0.044087,0.051966,-0.006402,0.002800,-0.003651,0.339737,0.373269,-1.159025,0.096683,0.006752,-0.018396,1.000000,-0.000032,0.000014,-0.000018,0.999993,0.002702,0.002696,0.000590,0.309774,0.308737,0.068482,0.999985,0.001195,-0.005388,-0.001166,0.999985,0.005406,0.005395,-0.005400,0.999971
30854,2,0,-57.0000,9.670774,0.646888,-1.820596,-0.017074,-0.023472,0.049161,-0.006402,0.002800,-0.003651,0.343891,0.375933,-1.155101,0.096708,0.006467,-0.018208,1.000000,-0.000032,0.000014,-0.000018,0.999993,0.002681,0.002689,0.000534,0.307364,0.307976,0.062056,0.999985,0.001083,-0.005375,-0.001054,0.999985,0.005364,0.005381,-0.005359,0.999971
30855,2,0,-57.0000,9.676030,0.677571,-1.805011,-0.012655,-0.057621,0.053378,-0.009103,0.006754,0.005498,0.341308,0.374413,-1.153112,0.096760,0.006778,-0.018054,1.000000,-0.000046,0.000034,0.000027,0.999993,0.002694,0.002649,0.000471,0.308880,0.303392,0.054817,0.999986,0.000957,-0.005295,-0.000928,0.999985,0.005391,0.005300,-0.005386,0.999971
30856,2,0,-57.0000,9.654571,0.640788,-1.762119,0.034426,-0.038019,0.022138,-0.011666,0.007936,0.003310,0.339981,0.374835,-1.142912,0.096545,0.006408,-0.017625,1.000000,-0.000058,0.000040,0.000017,0.999993,0.002692,0.002609,0.000415,0.308628,0.298894,0.048361,0.999986,0.000844,-0.005217,-0.000816,0.999985,0.005386,0.005221,-0.005382,0.999972
30857,2,0,-57.0000,9.622957,0.631390,-1.771655,0.022146,-0.025941,-0.007711,-0.010755,0.001840,0.005978,0.339909,0.376297,-1.155826,0.096229,0.006316,-0.017718,1.000000,-0.000054,0.000009,0.000030,0.999993,0.002715,0.002592,0.000342,0.311178,0.296858,0.039972,0.999986,0.000698,-0.005181,-0.000669,0.999985,0.005431,0.005185,-0.005427,0.999972
30858,2,0,-57.0000,9.648990,0.625368,-1.847734,-0.041190,0.005662,0.031422,-0.010929,0.005550,0.006386,0.337663,0.377149,-1.155394,0.096489,0.006256,-0.018480,1.000000,-0.000055,0.000028,0.000032,0.999993,0.002730,0.002557,0.000272,0.312962,0.292961,0.031915,0.999987,0.000557,-0.005113,-0.000529,0.999985,0.005462,0.005116,-0.005459,0.999972
30859,2,0,-57.0000,9.642103,0.607474,-1.809420,-0.001735,0.008752,0.016508,-0.012031,0.002274,0.006706,0.341346,0.371443,-1.158092,0.096421,0.006077,-0.018096,1.000000,-0.000060,0.000011,0.000034,0.999993,0.002754,0.002536,0.000192,0.315669,0.290551,0.022748,0.999987,0.000397,-0.005071,-0.000369,0.999985,0.005509,0.005073,-0.005507,0.999972
30860,2,0,-57.0000,9.627531,0.587911,-1.805021,0.005870,0.025075,0.000183,-0.010663,-0.000173,0.007596,0.338860,0.371780,-1.155127,0.096275,0.005882,-0.018050,1.000000,-0.000053,-0.000001,0.000038,0.999993,0.002788,0.002525,0.000123,0.319518,0.289305,0.014906,0.999987,0.000260,-0.005049,-0.000232,0.999984,0.005577,0.005051,-0.005575,0.999972
30861,2,0,-57.0000,9.612951,0.568296,-1.800671,0.013471,0.041405,-0.016141,-0.010112,0.001464,0.007437,0.340044,0.375898,-1.157095,0.096129,0.005686,-0.018008,1.000000,-0.000051,0.000007,0.000037,0.999993,0.002818,0.002506,0.000052,0.322983,0.287180,0.006715,0.999987,0.000117,-0.005012,-0.000089,0.999984,0.005637,0.005013,-0.005637,0.999972
30862,2,0,-57.0000,9.605335,0.566259,-1.834360,-0.018354,0.054475,-0.017552,-0.006112,-0.003549,0.004846,0.351130,0.378261,-1.151024,0.096054,0.005664,-0.018342,1.000000,-0.000031,-0.000018,0.000024,0.999993,0.002850,0.002516,0.000008,0.326566,0.288305,0.001781,0.999987,0.000031,-0.005032,-0.000002,0.999984,0.005700,0.005032,-0.005699,0.999971
30863,2,0,-58.0000,9.612955,0.567651,-1.800854,0.013521,0.041067,-0.016140,-0.001276,0.000434,0.000728,0.338578,0.372408,-1.155073,0.096129,0.005677,-0.018009,1.000000,-0.000006,0.000002,0.000004,0.999993,0.002860,0.002514,-0.000014,0.327681,0.288044,-0.000786,0.999987,-0.000014,-0.005027,0.000042,0.999984,0.005719,0.005027,-0.005719,0.999971
30864,2,0,-58.0000,9.622395,0.556007,-1.820326,0.001651,0.058420,-0.004028,-0.000459,-0.003650,0.001776,0.338709,0.370896,-1.161065,0.096224,0.005561,-0.018202,1.000000,-0.000002,-0.000018,0.000009,0.999993,0.002881,0.002533,-0.000003,0.330093,0.290280,0.000547,0.999987,0.000010,-0.005066,0.000020,0.999983,0.005761,0.005066,-0.005761,0.999971
30865,2,0,-57.0000,9.644592,0.576660,-1.791320,0.025945,0.028515,0.013708,0.002724,-0.004579,-0.001865,0.336620,0.369519,-1.158177,0.096446,0.005766,-0.017911,1.000000,0.000014,-0.000023,-0.000009,0.999993,0.002891,0.002559,-0.000005,0.331271,0.293216,0.000323,0.999987,0.000006,-0.005118,0.000024,0.999983,0.005782,0.005118,-0.005782,0.999970
30866,2,0,-58.0000,9.636887,0.575151,-1.825301,-0.005917,0.041527,0.012299,0.005746,-0.002113,-0.001452,0.337955,0.374489,-1.147246,0.096369,0.005751,-0.018252,1.000000,0.000029,-0.000011,-0.000007,0.999992,0.002905,0.002571,0.000016,0.332919,0.294569,0.002698,0.999987,0.000047,-0.005141,-0.000017,0.999983,0.005810,0.005141,-0.005810,0.999970
30867,2,0,-58.0000,9.627360,0.586671,-1.806337,0.006078,0.023872,0.000186,0.007114,-0.004559,-0.000562,0.340960,0.377553,-1.147327,0.096274,0.005867,-0.018061,1.000000,0.000036,-0.000023,-0.000003,0.999992,0.002926,0.002594,0.000034,0.335268,0.297220,0.004811,0.999987,0.000084,-0.005187,-0.000054,0.999983,0.005851,0.005188,-0.005851,0.999969
30868,2,0,-58.0000,9.673635,0.614856,-1.801000,0.010855,-0.004982,0.046356,0.004644,-0.005388,-0.001134,0.341853,0.370698,-1.151228,0.096737,0.006148,-0.018007,1.000000,0.000023,-0.000027,-0.000006,0.999992,0.002940,0.002624,0.000041,0.336868,0.300686,0.005581,0.999986,0.000097,-0.005248,-0.000067,0.999983,0.005879,0.005248,-0.005879,0.999969
30869,2,0,-58.0000,9.651259,0.594103,-1.830963,-0.013396,0.024597,0.028623,0.009033,-0.005369,0.000169,0.338219,0.372892,-1.153761,0.096513,0.005942,-0.018307,1.000000,0.000045,-0.000027,0.000001,0.999992,0.002967,0.002650,0.000068,0.339973,0.303620,0.008671,0.999986,0.000151,-0.005299,-0.000120,0.999982,0.005934,0.005300,-0.005933,0.999968
30870,2,0,-58.0000,9.622180,0.644538,-1.844825,-0.048719,-0.018056,0.005788,0.006297,-0.000476,-0.001611,0.339825,0.364239,-1.157302,0.096222,0.006445,-0.018448,1.000000,0.000031,-0.000002,-0.000008,0.999992,0.002975,0.002657,0.000098,0.340970,0.304436,0.012082,0.999986,0.000211,-0.005313,-0.000179,0.999982,0.005951,0.005315,-0.005950,0.999968
30871,2,0,-57.0000,9.656330,0.624437,-1.816538,-0.008941,-0.009735,0.032833,0.000278,-0.006036,0.004853,0.342933,0.375390,-1.160386,0.096564,0.006247,-0.018162,1.000000,0.000001,-0.000030,0.000024,0.999992,0.003017,0.002678,0.000077,0.345700,0.306823,0.009743,0.999986,0.000170,-0.005355,-0.000138,0.999982,0.006033,0.005356,-0.006033,0.999967
30872,2,0,-57.0000,9.629701,0.645429,-1.812086,-0.016813,-0.031698,0.007195,-0.000997,-0.005601,0.005581,0.340692,0.375584,-1.154485,0.096297,0.006457,-0.018118,1.000000,-0.000005,-0.000028,0.000028,0.999992,0.003063,0.002696,0.000075,0.350966,0.308925,0.009516,0.999985,0.000166,-0.005392,-0.000133,0.999981,0.006125,0.005393,-0.006125,0.999967
30873,2,0,-57.0000,9.608015,0.608492,-1.770432,0.030225,-0.012119,-0.024042,-0.008582,-0.004377,0.004276,0.340780,0.369070,-1.157734,0.096080,0.006086,-0.017702,1.000000,-0.000043,-0.000022,0.000021,0.999992,0.003090,0.002710,0.000012,0.354081,0.310567,0.002309,0.999985,0.000040,-0.005420,-0.000007,0.999981,0.006180,0.005421,-0.006180,0.999966
30874,2,0,-57.0000,9.617428,0.596642,-1.790075,0.018291,0.005188,-0.011927,-0.011132,-0.003508,0.005732,0.343847,0.371676,-1.156584,0.096174,0.005968,-0.017899,1.000000,-0.000056,-0.000018,0.000029,0.999991,0.003121,0.002719,-0.000050,0.357625,0.311571,-0.004762,0.999985,-0.000083,-0.005438,0.000117,0.999981,0.006242,0.005437,-0.006242,0.999966
30875,2,0,-57.0000,9.610371,0.578775,-1.752705,0.057746,0.008269,-0.026841,-0.009040,-0.008028,0.006054,0.342242,0.368217,-1.162242,0.096104,0.005790,-0.017523,1.000000,-0.000045,-0.000040,0.000030,0.999991,0.003162,0.002747,-0.000118,0.362341,0.314822,-0.012535,0.999985,-0.000219,-0.005495,0.000254,0.999980,0.006324,0.005493,-0.006325,0.999965
30876,2,0,-57.0000,9.593165,0.588429,-1.767679,0.037919,0.003806,-0.040364,-0.006583,-0.006885,0.002981,0.344094,0.378391,-1.156134,0.095932,0.005885,-0.017674,1.000000,-0.000033,-0.000034,0.000015,0.999991,0.003193,0.002777,-0.000138,0.365848,0.318258,-0.014775,0.999985,-0.000258,-0.005555,0.000293,0.999980,0.006385,0.005553,-0.006387,0.999964
30877,2,0,-57.0000,9.660779,0.564340,-1.782700,0.046171,0.030603,0.027235,0.002909,-0.008605,0.001370,0.339553,0.366841,-1.162470,0.096609,0.005644,-0.017823,1.000000,0.000015,-0.000043,0.000007,0.999991,0.003225,0.002816,-0.000143,0.369541,0.322711,-0.015363,0.999984,-0.000268,-0.005632,0.000304,0.999979,0.006450,0.005631,-0.006451,0.999963
30878,2,0,-57.0000,9.628919,0.555040,-1.793457,0.033914,0.042670,-0.002607,0.004011,-0.005329,0.001051,0.340560,0.376413,-1.158189,0.096290,0.005551,-0.017932,1.000000,0.000020,-0.000027,0.000005,0.999991,0.003253,0.002841,-0.000122,0.372702,0.325577,-0.012917,0.999984,-0.000225,-0.005682,0.000262,0.999979,0.006505,0.005681,-0.006506,0.999963
30879,2,0,-57.0000,9.609219,0.593959,-1.827013,-0.013410,0.017531,-0.013332,0.004815,-0.009100,-0.001543,0.341956,0.366244,-1.158458,0.096093,0.005939,-0.018266,1.000000,0.000024,-0.000045,-0.000008,0.999990,0.003274,0.002887,-0.000115,0.375170,0.330870,-0.012150,0.999983,-0.000212,-0.005775,0.000250,0.999979,0.006548,0.005773,-0.006549,0.999962
30880,2,0,-57.0000,9.611497,0.564917,-1.809475,0.014087,0.038066,-0.016129,0.004908,-0.011113,0.000074,0.335724,0.371004,-1.160242,0.096116,0.005650,-0.018089,1.000000,0.000025,-0.000056,0.000000,0.999990,0.003309,0.002941,-0.000093,0.379114,0.336997,-0.009506,0.999983,-0.000166,-0.005882,0.000205,0.999978,0.006617,0.005880,-0.006618,0.999961
30881,2,0,-58.0000,9.640570,0.603120,-1.819016,-0.001061,0.004905,0.016511,0.003619,-0.010364,-0.002841,0.337483,0.368635,-1.158840,0.096407,0.006030,-0.018185,1.000000,0.000018,-0.000052,-0.000014,0.999990,0.003325,0.002995,-0.000091,0.381013,0.343233,-0.009320,0.999982,-0.000163,-0.005991,0.000203,0.999978,0.006650,0.005989,-0.006651,0.999960
30882,2,0,-57.0000,9.640383,0.603228,-1.819972,-0.001093,0.004680,0.016511,0.008561,-0.008707,-0.001701,0.342662,0.377961,-1.158593,0.096405,0.006032,-0.018195,1.000000,0.000043,-0.000044,-0.000009,0.999990,0.003352,0.003037,-0.000073,0.384097,0.348029,-0.007141,0.999982,-0.000125,-0.006074,0.000165,0.999978,0.006704,0.006073,-0.006704,0.999959
30883,2,0,-57.0000,9.649627,0.591813,-1.840283,-0.013042,0.022006,0.028630,0.004894,-0.010800,-0.003569,0.334688,0.371345,-1.160789,0.096497,0.005917,-0.018397,1.000000,0.000024,-0.000054,-0.000018,0.999990,0.003367,0.003095,-0.000064,0.385842,0.354639,-0.006178,0.999981,-0.000108,-0.006190,0.000150,0.999977,0.006734,0.006189,-0.006735,0.999958
30884,2,0,-58.0000,9.651896,0.563124,-1.822729,0.014419,0.042575,0.025835,0.009821,-0.008829,-0.006073,0.334214,0.374373,-1.160946,0.096520,0.005629,-0.018223,1.000000,0.000049,-0.000044,-0.000030,0.999989,0.003372,0.003146,-0.000035,0.386428,0.360512,-0.002851,0.999980,-0.000050,-0.006292,0.000092,0.999977,0.006744,0.006292,-0.006745,0.999957
30885,2,0,-57.0000,9.608005,0.594910,-1.833075,-0.013354,0.016453,-0.013330,0.005618,-0.012874,-0.004136,0.337085,0.362745,-1.152051,0.096081,0.005948,-0.018324,1.000000,0.000028,-0.000064,-0.000021,0.999989,0.003389,0.003214,-0.000024,0.388362,0.368346,-0.001493,0.999979,-0.000026,-0.006429,0.000070,0.999977,0.006778,0.006428,-0.006778,0.999956
30886,2,0,-58.0000,9.648935,0.592738,-1.843609,-0.013066,0.021452,0.028631,0.008088,-0.012046,-0.003566,0.341816,0.375157,-1.154701,0.096491,0.005926,-0.018430,1.000000,0.000040,-0.000060,-0.000018,0.999989,0.003413,0.003275,-0.000013,0.391074,0.375268,-0.000188,0.999979,-0.000003,-0.006550,0.000048,0.999977,0.006825,0.006549,-0.006825,0.999955
30887,2,0,-58.0000,9.624602,0.585605,-1.821315,0.006509,0.020295,0.000194,0.008797,-0.013806,-0.007777,0.331631,0.379281,-1.156471,0.096248,0.005853,-0.018206,1.000000,0.000044,-0.000069,-0.000039,0.999989,0.003417,0.003354,0.000017,0.391630,0.384315,0.003302,0.999978,0.000058,-0.006708,-0.000012,0.999977,0.006835,0.006708,-0.006835,0.999954
30888,2,0,-57.0000,9.620084,0.628197,-1.788312,0.022830,-0.031301,-0.007729,0.008812,-0.014120,-0.004132,0.340035,0.368271,-1.165547,0.096202,0.006281,-0.017876,1.000000,0.000044,-0.000071,-0.000021,0.999988,0.003437,0.003426,0.000017,0.393875,0.392567,0.003293,0.999977,0.000057,-0.006852,-0.000010,0.999976,0.006874,0.006852,-0.006874,0.999953
30889,2,0,-57.0000,9.636935,0.618554,-1.775394,0.042731,-0.027237,0.005794,0.006892,-0.013311,-0.004861,0.339423,0.373753,-1.157473,0.096371,0.006184,-0.017747,1.000000,0.000034,-0.000067,-0.000024,0.999988,0.003453,0.003498,0.000035,0.395656,0.400775,0.005429,0.999976,0.000095,-0.006995,-0.000046,0.999976,0.006905,0.006995,-0.006905,0.999952
30890,2,0,-58.0000,9.604915,0.609833,-1.786714,0.030424,-0.015181,-0.024047,0.006247,-0.012938,-0.006319,0.346048,0.379423,-1.153527,0.096051,0.006096,-0.017861,1.000000,0.000031,-0.000065,-0.000032,0.999988,0.003463,0.003568,0.000054,0.396812,0.408870,0.007583,0.999975,0.000132,-0.007136,-0.000083,0.999976,0.006925,0.007137,-0.006925,0.999951
30891,2,0,-58.0000,9.645828,0.607820,-1.797313,0.030770,-0.010124,0.017914,0.005617,-0.012877,-0.004132,0.346695,0.372995,-1.152657,0.096460,0.006077,-0.017967,1.000000,0.000028,-0.000064,-0.000021,0.999987,0.003479,0.003637,0.000065,0.398750,0.416704,0.008942,0.999974,0.000156,-0.007273,-0.000105,0.999976,0.006959,0.007274,-0.006958,0.999949
30892,2,0,-58.0000,9.674850,0.646175,-1.807000,0.015683,-0.043231,0.050547,0.011110,-0.009581,-0.003156,0.341019,0.372753,-1.148581,0.096749,0.006461,-0.018065,1.000000,0.000056,-0.000048,-0.000016,0.999987,0.003498,0.003692,0.000126,0.400862,0.422990,0.015905,0.999973,0.000278,-0.007382,-0.000226,0.999976,0.006996,0.007384,-0.006994,0.999948
30893,2,0,-58.0000,9.625805,0.646867,-1.832159,-0.016471,-0.035349,0.007183,0.000362,-0.007737,0.002832,0.343238,0.372901,-1.149754,0.096259,0.006470,-0.018318,1.000000,0.000002,-0.000039,0.000014,0.999987,0.003533,0.003724,0.000107,0.404867,0.426695,0.013766,0.999972,0.000240,-0.007447,-0.000188,0.999975,0.007066,0.007449,-0.007064,0.999947
30894,2,0,-57.0000,9.669324,0.615215,-1.823884,0.011383,-0.009543,0.046352,0.001809,-0.011885,0.001698,0.344446,0.370963,-1.156202,0.096694,0.006153,-0.018233,1.000000,0.000009,-0.000059,0.000008,0.999986,0.003570,0.003779,0.000099,0.409096,0.433039,0.012941,0.999971,0.000226,-0.007558,-0.000172,0.999974,0.007140,0.007559,-0.007138,0.999946
30895,2,0,-58.0000,9.649521,0.653966,-1.857616,-0.035955,-0.034654,0.035620,-0.006578,-0.006886,0.002992,0.349420,0.372429,-1.153927,0.096496,0.006540,-0.018573,1.000000,-0.000033,-0.000034,0.000015,0.999986,0.003597,0.003807,0.000047,0.412237,0.436284,0.006911,0.999971,0.000121,-0.007615,-0.000066,0.999974,0.007195,0.007615,-0.007194,0.999945
30896,2,0,-57.0000,9.629560,0.604269,-1.869055,-0.032649,0.015662,0.015112,-0.012166,-0.008171,0.000399,0.347036,0.366822,-1.149739,0.096296,0.006042,-0.018687,1.000000,-0.000061,-0.000041,0.000002,0.999986,0.003610,0.003850,0.000001,0.413683,0.441137,0.001659,0.999970,0.000029,-0.007699,0.000027,0.999974,0.007220,0.007699,-0.007220,0.999944
30897,2,0,-57.0000,9.617307,0.556193,-1.846966,0.002439,0.052721,-0.003995,-0.007129,-0.008526,0.003154,0.337792,0.370237,-1.160391,0.096174,0.005563,-0.018466,1.000000,-0.000036,-0.000043,0.000016,0.999986,0.003641,0.003885,-0.000056,0.417168,0.445233,-0.004754,0.999970,-0.000083,-0.007771,0.000140,0.999973,0.007281,0.007770,-0.007282,0.999943
30898,2,0,-58.0000,9.614675,0.585136,-1.866149,-0.025009,0.031787,-0.001203,-0.005399,-0.005310,0.000645,0.341370,0.371784,-1.153124,0.096147,0.005851,-0.018659,1.000000,-0.000027,-0.000027,0.000003,0.999986,0.003658,0.003910,-0.000086,0.419180,0.448138,-0.008191,0.999969,-0.000143,-0.007821,0.000200,0.999973,0.007316,0.007820,-0.007317,0.999943
30899,2,0,-57.0000,9.630019,0.588480,-1.799479,0.038700,0.005084,0.001597,-0.001575,-0.006616,-0.001541,0.339287,0.372695,-1.154712,0.096301,0.005884,-0.017992,1.000000,-0.000008,-0.000033,-0.000008,0.999985,0.003669,0.003945,-0.000110,0.420443,0.452122,-0.010930,0.999969,-0.000191,-0.007891,0.000249,0.999973,0.007338,0.007889,-0.007340,0.999942
30900,2,0,-58.0000,9.612758,0.598567,-1.814351,0.018825,0.000699,-0.011926,-0.002850,-0.006181,-0.000812,0.344958,0.373533,-1.150334,0.096128,0.005985,-0.018141,1.000000,-0.000014,-0.000031,-0.000004,0.999985,0.003682,0.003976,-0.000146,0.421854,0.455662,-0.015083,0.999968,-0.000263,-0.007953,0.000322,0.999973,0.007362,0.007951,-0.007365,0.999941
30901,2,0,-58.0000,9.597965,0.579658,-1.810927,0.026439,0.017034,-0.028241,-0.001954,-0.011968,-0.001786,0.339685,0.369209,-1.154043,0.095981,0.005796,-0.018104,1.000000,-0.000010,-0.000060,-0.000009,0.999985,0.003701,0.004036,-0.000174,0.423996,0.462571,-0.018191,0.999967,-0.000317,-0.008073,0.000377,0.999973,0.007400,0.008071,-0.007403,0.999940
30902,2,0,-58.0000,9.589973,0.578494,-1.845733,-0.005368,0.030142,-0.029639,0.001852,-0.012961,-0.007616,0.349786,0.378176,-1.159218,0.095901,0.005781,-0.018451,1.000000,0.000009,-0.000065,-0.000038,0.999985,0.003698,0.004112,-0.000172,0.423701,0.471251,-0.017911,0.999966,-0.000313,-0.008225,0.000373,0.999973,0.007395,0.008222,-0.007397,0.999939
30903,2,0,-58.0000,9.648014,0.566656,-1.842082,0.014866,0.039412,0.025847,0.000595,-0.012839,-0.003243,0.338735,0.370210,-1.159578,0.096481,0.005665,-0.018415,1.000000,0.000003,-0.000064,-0.000016,0.999984,0.003714,0.004179,-0.000185,0.425533,0.478909,-0.019465,0.999965,-0.000340,-0.008358,0.000402,0.999972,0.007427,0.008356,-0.007430,0.999937
30904,2,0,-58.0000,9.613436,0.587017,-1.871932,-0.024871,0.030814,-0.001199,0.001301,-0.014601,-0.007454,0.343934,0.380190,-1.153617,0.096136,0.005867,-0.018712,1.000000,0.000007,-0.000073,-0.000037,0.999984,0.003714,0.004261,-0.000183,0.425552,0.488404,-0.019128,0.999964,-0.000334,-0.008524,0.000397,0.999972,0.007427,0.008521,-0.007430,0.999936
30905,2,0,-58.0000,9.626108,0.620063,-1.824531,0.011355,-0.016617,0.004387,0.003030,-0.011384,-0.009963,0.338109,0.368662,-1.151502,0.096262,0.006196,-0.018240,1.000000,0.000015,-0.000057,-0.000050,0.999984,0.003699,0.004333,-0.000178,0.423837,0.496610,-0.018570,0.999962,-0.000324,-0.008667,0.000388,0.999973,0.007397,0.008665,-0.007400,0.999935
30906,2,0,-58.0000,9.635205,0.609363,-1.845176,-0.000591,0.000746,0.016512,-0.001171,-0.015432,-0.008019,0.343631,0.369079,-1.164995,0.096354,0.006090,-0.018444,1.000000,-0.000006,-0.000077,-0.000040,0.999983,0.003695,0.004420,-0.000208,0.423276,0.506574,-0.021953,0.999961,-0.000383,-0.008841,0.000448,0.999973,0.007387,0.008838,-0.007391,0.999934
30907,2,0,-58.0000,9.610866,0.602622,-1.823011,0.018982,-0.000412,-0.011927,-0.001171,-0.015433,-0.008019,0.348469,0.374174,-1.163688,0.096110,0.006022,-0.018223,1.000000,-0.000006,-0.000077,-0.000040,0.999983,0.003691,0.004507,-0.000227,0.422903,0.516584,-0.024096,0.999959,-0.000421,-0.009016,0.000487,0.999973,0.007381,0.009013,-0.007385,0.999932
30908,2,0,-58.0000,9.637093,0.582041,-1.829532,0.026931,0.021086,0.013724,0.005027,-0.013896,-0.011259,0.342103,0.366728,-1.154508,0.096373,0.005815,-0.018288,1.000000,0.000025,-0.000069,-0.000056,0.999983,0.003679,0.004593,-0.000191,0.421509,0.526396,-0.019910,0.999958,-0.000347,-0.009187,0.000415,0.999973,0.007356,0.009184,-0.007360,0.999931
30909,2,0,-58.0000,9.607557,0.544656,-1.822399,0.042145,0.053922,-0.018900,0.013261,-0.015494,-0.008509,0.344968,0.370819,-1.151827,0.096077,0.005444,-0.018216,1.000000,0.000066,-0.000077,-0.000043,0.999982,0.003688,0.004681,-0.000138,0.422526,0.536477,-0.013885,0.999956,-0.000242,-0.009363,0.000311,0.999973,0.007374,0.009361,-0.007377,0.999929
30910,2,0,-58.0000,9.636409,0.583497,-1.832670,0.026977,0.020719,0.013724,0.018357,-0.017237,-0.011425,0.354114,0.373496,-1.155078,0.096366,0.005831,-0.018318,1.000000,0.000092,-0.000086,-0.000057,0.999982,0.003693,0.004783,-0.000049,0.423159,0.548086,-0.003610,0.999954,-0.000063,-0.009566,0.000134,0.999973,0.007385,0.009565,-0.007386,0.999927
30911,2,0,-58.0000,9.653273,0.662839,-1.842294,-0.003723,-0.050653,0.037008,0.014631,-0.017946,-0.007616,0.340933,0.373583,-1.152045,0.096535,0.006626,-0.018414,1.000000,0.000073,-0.000090,-0.000038,0.999981,0.003711,0.004881,0.000008,0.425285,0.559299,0.003011,0.999952,0.000053,-0.009761,0.000020,0.999972,0.007422,0.009762,-0.007422,0.999925
30912,2,0,-58.0000,9.664940,0.711453,-1.866841,-0.038735,-0.088012,0.056106,0.003221,-0.015418,-0.006718,0.348571,0.374659,-1.159979,0.096651,0.007112,-0.018661,1.000000,0.000016,-0.000077,-0.000034,0.999981,0.003717,0.004968,0.000028,0.425980,0.569294,0.005275,0.999951,0.000092,-0.009936,-0.000018,0.999972,0.007434,0.009936,-0.007434,0.999923
30913,2,0,-57.0000,9.654238,0.650550,-1.898195,-0.047432,-0.020186,0.047739,-0.008244,-0.011499,-0.000153,0.347055,0.370770,-1.160184,0.096543,0.006505,-0.018977,1.000000,-0.000041,-0.000057,-0.000001,0.999980,0.003736,0.005023,-0.000032,0.428166,0.575653,-0.001524,0.999950,-0.000027,-0.010047,0.000102,0.999972,0.007472,0.010046,-0.007473,0.999922
30914,2,0,-58.0000,9.685763,0.571213,-1.867124,0.015503,0.042767,0.067818,-0.010241,-0.008989,0.001143,0.345113,0.375561,-1.146634,0.096858,0.005712,-0.018667,1.000000,-0.000051,-0.000045,0.000006,0.999980,0.003756,0.005066,-0.000082,0.430411,0.580531,-0.007211,0.999949,-0.000126,-0.010132,0.000202,0.999972,0.007512,0.010131,-0.007513,0.999920
30915,2,0,-58.0000,9.635121,0.673837,-1.861244,-0.023463,-0.055516,0.023481,-0.017085,-0.010155,0.002931,0.344920,0.381222,-1.156044,0.096352,0.006738,-0.018608,1.000000,-0.000085,-0.000051,0.000015,0.999980,0.003779,0.005110,-0.000187,0.432948,0.585592,-0.019256,0.999948,-0.000336,-0.010220,0.000413,0.999971,0.007556,0.010217,-0.007560,0.999919
30916,2,0,-58.0000,9.690599,0.601622,-1.854144,0.019923,0.008528,0.072000,-0.011126,-0.016610,0.008352,0.347425,0.377880,-1.146084,0.096907,0.006019,-0.018534,1.000000,-0.000056,-0.000083,0.000042,0.999979,0.003839,0.005175,-0.000278,0.439790,0.593139,-0.029579,0.999946,-0.000516,-0.010352,0.000596,0.999970,0.007675,0.010348,-0.007681,0.999917
30917,2,0,-58.0000,9.628823,0.639184,-1.755078,0.087307,-0.062607,-0.004958,-0.004973,-0.027095,0.017013,0.349647,0.368087,-1.155213,0.096290,0.006400,-0.017538,1.000000,-0.000025,-0.000135,0.000085,0.999978,0.003967,0.005273,-0.000342,0.454437,0.604444,-0.036828,0.999944,-0.000643,-0.010549,0.000726,0.999968,0.007931,0.010544,-0.007938,0.999913
30918,2,0,-58.0000,9.643170,0.745173,-1.783873,0.029172,-0.154662,0.021103,-0.000105,-0.023736,0.020167,0.345949,0.378624,-1.157983,0.096433,0.007461,-0.017827,1.000000,-0.000001,-0.000119,0.000101,0.999977,0.004108,0.005353,-0.000365,0.470492,0.613634,-0.039305,0.999942,-0.000686,-0.010710,0.000774,0.999966,0.008211,0.010704,-0.008219,0.999909
30919,2,0,-58.0000,9.583393,0.682509,-1.840657,-0.011691,-0.078752,-0.030616,0.000186,-0.029782,0.025028,0.339703,0.374897,-1.158273,0.095836,0.006837,-0.018392,1.000000,0.000001,-0.000149,0.000125,0.999976,0.004282,0.005450,-0.000412,0.490470,0.624765,-0.044560,0.999940,-0.000778,-0.010904,0.000871,0.999963,0.008560,0.010897,-0.008569,0.999904
30920,2,0,-58.0000,9.626863,0.736964,-1.856503,-0.034512,-0.128370,0.018312,-0.001042,-0.029978,0.033050,0.353689,0.368324,-1.156737,0.096270,0.007385,-0.018551,1.000000,-0.000005,-0.000150,0.000165,0.999974,0.004491,0.005532,-0.000492,0.514300,0.634204,-0.053511,0.999938,-0.000934,-0.011069,0.001033,0.999959,0.008976,0.011060,-0.008986,0.999898
30921,2,0,-58.0000,9.572170,0.615393,-1.876388,-0.020393,-0.011038,-0.038976,-0.013002,-0.029090,0.034125,0.345625,0.375709,-1.156677,0.095723,0.006169,-0.018750,1.000000,-0.000065,-0.000145,0.000171,0.999973,0.004693,0.005610,-0.000612,0.537416,0.643224,-0.067094,0.999936,-0.001171,-0.011226,0.001276,0.999955,0.009379,0.011215,-0.009393,0.999893
30922,2,0,-58.0000,9.607701,0.579239,-1.903531,-0.024345,0.028004,-0.001190,-0.006233,-0.026232,0.034360,0.344025,0.366903,-1.153138,0.096079,0.005808,-0.019023,1.000000,-0.000031,-0.000131,0.000172,0.999972,0.004898,0.005677,-0.000676,0.560825,0.650878,-0.074325,0.999935,-0.001297,-0.011360,0.001408,0.999951,0.009787,0.011346,-0.009803,0.999888
30923,2,0,-58.0000,9.583465,0.568835,-1.882177,-0.004773,0.026848,-0.029629,-0.015119,-0.024257,0.030168,0.344460,0.362933,-1.155459,0.095836,0.005701,-0.018811,1.000000,-0.000076,-0.000121,0.000151,0.999970,0.005072,0.005739,-0.000802,0.580665,0.658112,-0.088526,0.999933,-0.001545,-0.011486,0.001661,0.999947,0.010134,0.011470,-0.010152,0.999883
30924,2,0,-58.0000,9.617527,0.546348,-1.856159,0.035005,0.035040,-0.002581,-0.013126,-0.026774,0.028872,0.351686,0.371550,-1.158341,0.096177,0.005476,-0.018549,1.000000,-0.000066,-0.000134,0.000144,0.999969,0.005249,0.005815,-0.000912,0.600880,0.666858,-0.101051,0.999931,-0.001764,-0.011639,0.001886,0.999943,0.010486,0.011619,-0.010508,0.999877
30925,2,0,-58.0000,9.541432,0.478102,-1.855552,0.045548,0.096678,-0.081338,-0.012480,-0.027906,0.017371,0.343355,0.372246,-1.154749,0.095416,0.004788,-0.018543,1.000000,-0.000062,-0.000140,0.000087,0.999968,0.005373,0.005916,-0.001014,0.615004,0.678592,-0.112555,0.999928,-0.001964,-0.011843,0.002091,0.999940,0.010733,0.011822,-0.010757,0.999872
30926,2,0,-58.0000,9.603274,0.421955,-1.887948,0.049514,0.157431,-0.017891,0.007520,-0.026385,0.015787,0.336834,0.365257,-1.147279,0.096035,0.004228,-0.018867,1.000000,0.000038,-0.000132,0.000079,0.999966,0.005505,0.006014,-0.001009,0.630156,0.689797,-0.111871,0.999926,-0.001952,-0.012039,0.002085,0.999937,0.010997,0.012017,-0.011022,0.999867
30927,2,0,-58.0000,9.608151,0.451151,-1.875600,0.053885,0.123271,-0.013714,0.010758,-0.029021,0.010111,0.346849,0.370366,-1.152189,0.096084,0.004517,-0.018742,1.000000,0.000054,-0.000145,0.000051,0.999965,0.005620,0.006133,-0.000991,0.643350,0.703435,-0.109576,0.999923,-0.001912,-0.012277,0.002050,0.999935,0.011227,0.012255,-0.011252,0.999862
30928,2,0,-58.0000,9.634353,0.517550,-1.905582,0.011185,0.069406,0.021687,0.016899,-0.026855,-0.000435,0.344000,0.362902,-1.150895,0.096346,0.005177,-0.019042,1.000000,0.000084,-0.000134,-0.000002,0.999964,0.005689,0.006259,-0.000951,0.651245,0.717788,-0.104847,0.999920,-0.001830,-0.012527,0.001972,0.999933,0.011365,0.012506,-0.011389,0.999857
30929,2,0,-58.0000,9.645900,0.565366,-1.931158,-0.023887,0.032041,0.040779,0.013153,-0.027249,-0.000261,0.352156,0.368091,-1.153210,0.096462,0.005655,-0.019298,1.000000,0.000066,-0.000136,-0.000001,0.999963,0.005756,0.006387,-0.000910,0.658914,0.732520,-0.100069,0.999917,-0.001746,-0.012785,0.001893,0.999932,0.011499,0.012764,-0.011522,0.999852
30930,2,0,-58.0000,9.656118,0.626405,-1.903652,-0.015160,-0.036140,0.049126,0.010512,-0.024360,-0.000416,0.350789,0.362977,-1.162643,0.096564,0.006265,-0.019024,1.000000,0.000053,-0.000122,-0.000002,0.999962,0.005815,0.006504,-0.000868,0.665765,0.745877,-0.095174,0.999914,-0.001661,-0.013018,0.001812,0.999931,0.011619,0.012997,-0.011641,0.999848
30931,2,0,-58.0000,9.629208,0.647973,-1.900611,-0.023082,-0.057997,0.023467,-0.003463,-0.020627,-0.001674,0.344716,0.366190,-1.152276,0.096294,0.006479,-0.018996,1.000000,-0.000017,-0.000103,-0.000008,0.999961,0.005848,0.006605,-0.000906,0.669473,0.757441,-0.099387,0.999911,-0.001734,-0.013219,0.001889,0.999930,0.011683,0.013198,-0.011707,0.999844
30932,2,0,-58.0000,9.594178,0.579509,-1.908864,-0.012199,0.008792,-0.013319,-0.007209,-0.021020,-0.001499,0.351742,0.368804,-1.152633,0.095944,0.005794,-0.019079,1.000000,-0.000036,-0.000105,-0.000007,0.999960,0.005881,0.006707,-0.000952,0.673210,0.769162,-0.104565,0.999908,-0.001825,-0.013424,0.001983,0.999929,0.011748,0.013402,-0.011774,0.999841
30933,2,0,-58.0000,9.640058,0.519275,-1.883326,0.043146,0.055222,0.023082,-0.006657,-0.019380,-0.001663,0.349365,0.361573,-1.160380,0.096402,0.005191,-0.018824,1.000000,-0.000033,-0.000097,-0.000008,0.999959,0.005908,0.006802,-0.001005,0.676307,0.780075,-0.110535,0.999905,-0.001929,-0.013614,0.002090,0.999928,0.011802,0.013591,-0.011830,0.999838
30934,2,0,-58.0000,9.605235,0.539538,-1.913527,0.003413,0.046627,-0.003965,0.000903,-0.020300,-0.004035,0.352588,0.375551,-1.156028,0.096054,0.005394,-0.019125,1.000000,0.000005,-0.000101,-0.000020,0.999958,0.005936,0.006906,-0.000998,0.679435,0.792033,-0.109688,0.999903,-0.001914,-0.013823,0.002078,0.999928,0.011857,0.013799,-0.011885,0.999834
30935,2,0,-58.0000,9.631347,0.518358,-1.920500,0.011379,0.068158,0.021696,0.006305,-0.014985,-0.004706,0.356363,0.365157,-1.154517,0.096315,0.005182,-0.019198,1.000000,0.000032,-0.000075,-0.000024,0.999957,0.005954,0.006985,-0.000983,0.681573,0.801104,-0.107909,0.999900,-0.001883,-0.013981,0.002050,0.999927,0.011894,0.013958,-0.011922,0.999832
30936,2,0,-58.0000,9.629923,0.620689,-1.891015,0.004597,-0.038169,0.020681,0.001259,-0.014624,-0.007443,0.347417,0.367024,-1.152298,0.096301,0.006203,-0.018903,1.000000,0.000006,-0.000073,-0.000037,0.999957,0.005953,0.007071,-0.000963,0.681462,0.810946,-0.105476,0.999898,-0.001841,-0.014153,0.002009,0.999927,0.011892,0.014130,-0.011920,0.999829
30937,2,0,-58.0000,9.621602,0.619832,-1.926077,-0.027216,-0.025032,0.019293,-0.006784,-0.017050,-0.006926,0.343035,0.367989,-1.157671,0.096218,0.006194,-0.019253,1.000000,-0.000034,-0.000085,-0.000035,0.999956,0.005952,0.007164,-0.001010,0.681317,0.821656,-0.110897,0.999895,-0.001935,-0.014340,0.002106,0.999927,0.011890,0.014316,-0.011919,0.999826
30938,2,0,-58.0000,9.623874,0.591697,-1.908957,0.000259,-0.004502,0.016511,-0.011348,-0.013347,-0.007804,0.345078,0.373309,-1.160301,0.096240,0.005912,-0.019083,1.000000,-0.000057,-0.000067,-0.000039,0.999956,0.005937,0.007240,-0.001094,0.679499,0.830350,-0.120388,0.999893,-0.002101,-0.014492,0.002273,0.999927,0.011858,0.014466,-0.011890,0.999825
30939,2,0,-58.0000,9.600963,0.572144,-1.939339,-0.023943,0.025141,-0.001181,-0.019489,-0.013757,-0.008907,0.352545,0.368809,-1.159500,0.096011,0.005715,-0.019387,1.000000,-0.000097,-0.000069,-0.000045,0.999955,0.005909,0.007321,-0.001201,0.676186,0.839768,-0.132649,0.999890,-0.002315,-0.014656,0.002488,0.999927,0.011800,0.014628,-0.011835,0.999823
30940,2,0,-58.0000,9.617913,0.563466,-1.926233,-0.004051,0.029185,0.012344,-0.015291,-0.009705,-0.010869,0.344665,0.363619,-1.155747,0.096180,0.005628,-0.019258,1.000000,-0.000076,-0.000049,-0.000054,0.999955,0.005869,0.007386,-0.001288,0.671464,0.847263,-0.142629,0.999888,-0.002489,-0.014787,0.002662,0.999928,0.011718,0.014757,-0.011756,0.999822
30941,2,0,-58.0000,9.634877,0.554736,-1.913101,0.015860,0.033216,0.025869,-0.017015,-0.012931,-0.008348,0.346766,0.370851,-1.149438,0.096350,0.005542,-0.019125,1.000000,-0.000085,-0.000065,-0.000042,0.999954,0.005844,0.007463,-0.001383,0.668568,0.856108,-0.153531,0.999885,-0.002679,-0.014941,0.002854,0.999928,0.011667,0.014909,-0.011708,0.999820
30942,2,0,-58.0000,9.643864,0.544581,-1.933409,0.003911,0.050543,0.038007,-0.016042,-0.007312,-0.013944,0.350766,0.366548,-1.160152,0.096440,0.005438,-0.019331,1.000000,-0.000080,-0.000037,-0.000070,0.999954,0.005786,0.007521,-0.001480,0.661790,0.862857,-0.164622,0.999882,-0.002873,-0.015059,0.003047,0.999929,0.011549,0.015025,-0.011593,0.999820
30943,2,0,-58.0000,9.622538,0.598348,-1.913612,0.000314,-0.005307,0.016511,-0.010474,-0.005713,-0.015019,0.343032,0.364360,-1.157422,0.096226,0.005975,-0.019134,1.000000,-0.000052,-0.000029,-0.000075,0.999954,0.005725,0.007576,-0.001535,0.654733,0.869107,-0.170924,0.999881,-0.002983,-0.015168,0.003156,0.999930,0.011426,0.015133,-0.011472,0.999820
30944,2,0,-58.0000,9.598461,0.592533,-1.890428,0.019842,-0.006517,-0.011931,-0.012228,-0.008623,-0.016143,0.351790,0.373954,-1.168057,0.095986,0.005916,-0.018901,1.000000,-0.000061,-0.000043,-0.000081,0.999953,0.005665,0.007643,-0.001602,0.647766,0.876906,-0.178570,0.999878,-0.003116,-0.015304,0.003289,0.999931,0.011304,0.015268,-0.011353,0.999819
30945,2,0,-58.0000,9.615451,0.584199,-1.877105,0.039752,-0.002491,0.001594,-0.010926,-0.009377,-0.013232,0.353336,0.382181,-1.154183,0.096156,0.005835,-0.018767,1.000000,-0.000055,-0.000047,-0.000066,0.999953,0.005618,0.007712,-0.001661,0.642312,0.884769,-0.185430,0.999876,-0.003236,-0.015442,0.003409,0.999931,0.011209,0.015404,-0.011260,0.999818
30946,2,0,-58.0000,9.624397,0.574262,-1.897560,0.027849,0.014917,0.013732,-0.010138,-0.013158,-0.015824,0.350440,0.373259,-1.151637,0.096246,0.005734,-0.018970,1.000000,-0.000051,-0.000066,-0.000079,0.999953,0.005562,0.007803,-0.001716,0.635907,0.895256,-0.191648,0.999872,-0.003344,-0.015625,0.003518,0.999932,0.011097,0.015586,-0.011151,0.999816
30947,2,0,-58.0000,9.616030,0.574300,-1.932421,-0.003957,0.028066,0.012347,-0.001276,-0.014823,-0.015293,0.343153,0.368792,-1.164157,0.096162,0.005736,-0.019317,1.000000,-0.000006,-0.000074,-0.000076,0.999952,0.005525,0.007900,-0.001728,0.631565,0.906394,-0.193040,0.999869,-0.003369,-0.015819,0.003543,0.999933,0.011021,0.015781,-0.011076,0.999814
30948,2,0,-58.0000,9.615668,0.575749,-1.933790,-0.003978,0.027906,0.012348,-0.003818,-0.013953,-0.013823,0.344008,0.364907,-1.163079,0.096158,0.005750,-0.019331,1.000000,-0.000019,-0.000070,-0.000069,0.999951,0.005490,0.007989,-0.001769,0.627523,0.916533,-0.197686,0.999866,-0.003450,-0.015996,0.003625,0.999933,0.010951,0.015957,-0.011007,0.999812
30949,2,0,-58.0000,9.620636,0.607954,-1.920138,0.000366,-0.006256,0.016510,-0.003131,-0.015716,-0.018036,0.355297,0.365072,-1.161273,0.096208,0.006071,-0.019194,1.000000,-0.000016,-0.000079,-0.000090,0.999951,0.005439,0.008095,-0.001788,0.621696,0.928708,-0.199868,0.999863,-0.003488,-0.016208,0.003664,0.999934,0.010849,0.016169,-0.010907,0.999810
30950,2,0,-58.0000,9.596394,0.602237,-1.897841,0.019900,-0.007494,-0.011931,-0.005605,-0.016549,-0.018590,0.354494,0.373698,-1.157638,0.095966,0.006013,-0.018971,1.000000,-0.000028,-0.000083,-0.000093,0.999950,0.005389,0.008204,-0.001811,0.615918,0.941248,-0.202444,0.999859,-0.003533,-0.016427,0.003710,0.999935,0.010748,0.016388,-0.010808,0.999807
30951,2,0,-58.0000,9.622463,0.582506,-1.904839,0.027875,0.014027,0.013734,-0.009868,-0.018908,-0.014599,0.343664,0.373103,-1.152074,0.096227,0.005817,-0.019040,1.000000,-0.000049,-0.000095,-0.000073,0.999949,0.005353,0.008320,-0.001867,0.611729,0.954494,-0.208878,0.999855,-0.003645,-0.016658,0.003823,0.999936,0.010675,0.016618,-0.010737,0.999804
30952,2,0,-58.0000,9.627344,0.614751,-1.891588,0.032198,-0.020107,0.017894,-0.007326,-0.019780,-0.016067,0.347844,0.368684,-1.156110,0.096276,0.006139,-0.018907,1.000000,-0.000037,-0.000099,-0.000080,0.999948,0.005313,0.008441,-0.001922,0.607056,0.968384,-0.215101,0.999850,-0.003754,-0.016901,0.003933,0.999936,0.010593,0.016860,-0.010658,0.999801
30953,2,0,-58.0000,9.609624,0.626390,-1.907384,0.012328,-0.024449,0.004369,-0.006226,-0.016495,-0.016397,0.338632,0.371466,-1.157072,0.096098,0.006255,-0.019066,1.000000,-0.000031,-0.000082,-0.000082,0.999948,0.005269,0.008548,-0.001958,0.601876,0.980669,-0.219223,0.999846,-0.003826,-0.017115,0.004006,0.999937,0.010503,0.017074,-0.010570,0.999798
30954,2,0,-58.0000,9.641064,0.637107,-1.899216,0.024533,-0.036949,0.034194,-0.003099,-0.016039,-0.014387,0.349931,0.366432,-1.158749,0.096413,0.006364,-0.018985,1.000000,-0.000015,-0.000080,-0.000072,0.999947,0.005236,0.008644,-0.002012,0.598118,0.991781,-0.225394,0.999842,-0.003933,-0.017309,0.004114,0.999937,0.010437,0.017267,-0.010507,0.999796
30955,2,0,-58.0000,9.620651,0.677590,-1.933333,-0.022848,-0.061969,0.023444,-0.005573,-0.016874,-0.014940,0.344681,0.366392,-1.156993,0.096209,0.006768,-0.019325,1.000000,-0.000028,-0.000084,-0.000075,0.999946,0.005200,0.008751,-0.002046,0.593853,1.003975,-0.229315,0.999838,-0.004002,-0.017522,0.004184,0.999938,0.010363,0.017479,-0.010435,0.999793
30956,2,0,-58.0000,9.628305,0.680582,-1.901314,0.008936,-0.075510,0.024826,-0.017494,-0.016310,-0.010183,0.351723,0.371065,-1.161331,0.096285,0.006799,-0.019006,1.000000,-0.000087,-0.000082,-0.000051,0.999945,0.005175,0.008844,-0.002151,0.590899,1.014669,-0.241224,0.999834,-0.004209,-0.017708,0.004393,0.999937,0.010311,0.017664,-0.010387,0.999790
30957,2,0,-58.0000,9.651741,0.689457,-1.926464,-0.010595,-0.074672,0.053266,-0.024503,-0.013763,-0.007960,0.352387,0.364148,-1.152509,0.096519,0.006888,-0.019259,1.000000,-0.000123,-0.000069,-0.000040,0.999944,0.005146,0.008924,-0.002283,0.587452,1.023911,-0.256420,0.999830,-0.004475,-0.017870,0.004658,0.999937,0.010251,0.017823,-0.010333,0.999788
30958,2,0,-58.0000,9.622276,0.652385,-1.919066,0.004655,-0.041870,0.020666,-0.031786,-0.018605,-0.004354,0.351030,0.364144,-1.148518,0.096225,0.006519,-0.019183,1.000000,-0.000159,-0.000093,-0.000022,0.999943,0.005137,0.009020,-0.002447,0.586223,1.035037,-0.275160,0.999825,-0.004802,-0.018064,0.004987,0.999935,0.010230,0.018014,-0.010318,0.999785
30959,2,0,-58.0000,9.669543,0.668726,-1.967817,-0.034423,-0.040033,0.077549,-0.035428,-0.007899,-0.005145,0.356317,0.373788,-1.157988,0.096696,0.006681,-0.019676,1.000000,-0.000177,-0.000039,-0.000026,0.999942,0.005100,0.009068,-0.002634,0.581808,1.040629,-0.296606,0.999822,-0.005176,-0.018161,0.005361,0.999934,0.010153,0.018108,-0.010248,0.999784
30960,2,0,-58.0000,9.625687,0.612493,-1.955297,-0.011526,0.009296,0.028652,-0.036596,-0.009490,-0.002788,0.358512,0.368907,-1.160400,0.096258,0.006120,-0.019550,1.000000,-0.000183,-0.000047,-0.000014,0.999942,0.005077,0.009120,-0.002817,0.578905,1.046719,-0.317547,0.999818,-0.005541,-0.018268,0.005727,0.999933,0.010102,0.018210,-0.010205,0.999782
30961,2,0,-58.0000,9.625553,0.613464,-1.955652,-0.011506,0.009135,0.028652,-0.035668,-0.002482,-0.002710,0.355059,0.362040,-1.153768,0.096256,0.006130,-0.019556,1.000000,-0.000178,-0.000012,-0.000014,0.999941,0.005042,0.009138,-0.003006,0.574676,1.048915,-0.339205,0.999815,-0.005919,-0.018306,0.006104,0.999931,0.010028,0.018245,-0.010138,0.999782
30962,2,0,-58.0000,9.601727,0.606680,-1.931807,0.008095,0.007911,0.000210,-0.041301,-0.002397,0.000403,0.352490,0.373977,-1.149296,0.096017,0.006063,-0.019318,1.000000,-0.000207,-0.000012,0.000002,0.999940,0.005018,0.009153,-0.003193,0.571776,1.050669,-0.360703,0.999812,-0.006294,-0.018337,0.006478,0.999929,0.009978,0.018273,-0.010094,0.999782
30963,2,0,-58.0000,9.587133,0.588450,-1.927386,0.015735,0.024254,-0.016087,-0.038864,-0.001246,-0.002685,0.343947,0.373932,-1.153620,0.095872,0.005879,-0.019274,1.000000,-0.000194,-0.000006,-0.000013,0.999940,0.004978,0.009165,-0.003397,0.566938,1.052212,-0.384122,0.999809,-0.006703,-0.018364,0.006886,0.999927,0.009893,0.018296,-0.010018,0.999782
30964,2,0,-57.0000,9.622807,0.556782,-1.952290,0.011771,0.063294,0.021728,-0.043197,-0.002977,-0.005976,0.349783,0.359739,-1.143555,0.096229,0.005561,-0.019523,1.000000,-0.000216,-0.000015,-0.000030,0.999939,0.004920,0.009191,-0.003636,0.560035,1.055223,-0.411532,0.999805,-0.007181,-0.018416,0.007362,0.999925,0.009773,0.018345,-0.009906,0.999783
30965,2,0,-58.0000,9.596228,0.579675,-1.946692,0.003826,0.041461,-0.003942,-0.039006,0.001088,-0.007938,0.356085,0.371617,-1.160430,0.095962,0.005789,-0.019469,1.000000,-0.000195,0.000005,-0.000040,0.999939,0.004851,0.009202,-0.003835,0.551962,1.056553,-0.434413,0.999801,-0.007581,-0.018439,0.007759,0.999924,0.009632,0.018365,-0.009773,0.999784
30966,2,0,-58.0000,9.622714,0.559825,-1.951878,0.011826,0.062917,0.021730,-0.036465,0.000219,-0.009409,0.353223,0.372151,-1.152918,0.096227,0.005590,-0.019520,1.000000,-0.000182,0.000001,-0.000047,0.999938,0.004783,0.009220,-0.004002,0.543907,1.058712,-0.453627,0.999798,-0.007916,-0.018477,0.008092,0.999922,0.009491,0.018400,-0.009639,0.999784
30967,2,0,-57.0000,9.619914,0.590577,-1.969970,-0.015667,0.042083,0.024502,-0.029628,0.001402,-0.011229,0.350741,0.371146,-1.154181,0.096199,0.005897,-0.019701,1.000000,-0.000148,0.000007,-0.000056,0.999938,0.004708,0.009235,-0.004152,0.535154,1.060472,-0.470881,0.999795,-0.008217,-0.018508,0.008391,0.999921,0.009338,0.018429,-0.009492,0.999785
30968,2,0,-57.0000,9.610620,0.603653,-1.950306,-0.003716,0.024412,0.012357,-0.030728,-0.001892,-0.010900,0.351843,0.366122,-1.160608,0.096107,0.006028,-0.019503,1.000000,-0.000154,-0.000009,-0.000055,0.999937,0.004640,0.009265,-0.004303,0.527144,1.063970,-0.488222,0.999791,-0.008520,-0.018569,0.008691,0.999920,0.009199,0.018489,-0.009358,0.999785
30969,2,0,-57.0000,9.610565,0.605155,-1.950110,-0.003696,0.024251,0.012357,-0.027772,0.002287,-0.008482,0.353083,0.370724,-1.159106,0.096106,0.006045,-0.019503,1.000000,-0.000139,0.000011,-0.000042,0.999937,0.004577,0.009271,-0.004446,0.519880,1.064694,-0.504686,0.999789,-0.008807,-0.018581,0.008977,0.999919,0.009072,0.018500,-0.009237,0.999786
30970,2,0,-57.0000,9.569464,0.608798,-1.940024,-0.004031,0.018865,-0.029610,-0.027051,0.000208,-0.009055,0.341624,0.364983,-1.152178,0.095695,0.006081,-0.019401,1.000000,-0.000135,0.000001,-0.000045,0.999936,0.004520,0.009287,-0.004572,0.513161,1.066589,-0.519124,0.999786,-0.009059,-0.018614,0.009227,0.999917,0.008955,0.018532,-0.009125,0.999787
30971,2,0,-57.0000,9.604012,0.590162,-1.911884,0.035775,0.027039,-0.002558,-0.018838,-0.001058,-0.009999,0.351018,0.379032,-1.151748,0.096041,0.005895,-0.019119,1.000000,-0.000094,-0.000005,-0.000050,0.999936,0.004466,0.009311,-0.004671,0.506815,1.069363,-0.530514,0.999783,-0.009257,-0.018663,0.009424,0.999916,0.008844,0.018579,-0.009018,0.999787
30972,2,0,-57.0000,9.607638,0.638180,-1.967986,-0.031200,0.003030,0.015128,-0.013235,0.000238,-0.007442,0.353102,0.385012,-1.159607,0.096077,0.006377,-0.019680,1.000000,-0.000066,0.000001,-0.000037,0.999935,0.004427,0.009323,-0.004758,0.502282,1.070689,-0.540537,0.999781,-0.009432,-0.018686,0.009597,0.999916,0.008765,0.018602,-0.008942,0.999787
30973,2,0,-57.0000,9.593044,0.620014,-1.963659,-0.023556,0.019375,-0.001167,-0.013785,-0.001408,-0.007279,0.353192,0.374210,-1.157139,0.095931,0.006195,-0.019636,1.000000,-0.000069,-0.000007,-0.000036,0.999935,0.004391,0.009343,-0.004835,0.498032,1.073082,-0.549376,0.999779,-0.009587,-0.018728,0.009751,0.999915,0.008691,0.018643,-0.008871,0.999787
30974,2,0,-57.0000,9.555773,0.581341,-1.988892,-0.040095,0.065596,-0.035135,-0.002307,-0.005607,-0.010276,0.348661,0.376431,-1.160245,0.095559,0.005808,-0.019886,1.000000,-0.000012,-0.000028,-0.000051,0.999935,0.004358,0.009389,-0.004853,0.494192,1.078313,-0.551528,0.999777,-0.009624,-0.018819,0.009788,0.999915,0.008624,0.018734,-0.008806,0.999786
30975,2,0,-57.0000,9.578235,0.602526,-1.960195,-0.015884,0.035594,-0.017461,0.001512,-0.005850,-0.003178,0.349686,0.375175,-1.157956,0.095783,0.006024,-0.019599,1.000000,0.000008,-0.000029,-0.000016,0.999934,0.004363,0.009423,-0.004860,0.494784,1.082201,-0.552331,0.999775,-0.009638,-0.018887,0.009803,0.999915,0.008634,0.018802,-0.008817,0.999784
30976,2,0,-56.0000,9.546229,0.593972,-1.970518,-0.028161,0.047774,-0.047281,0.004634,-0.006439,-0.010485,0.351101,0.370630,-1.148532,0.095463,0.005935,-0.019702,1.000000,0.000023,-0.000032,-0.000052,0.999934,0.004339,0.009471,-0.004853,0.492043,1.087672,-0.551495,0.999774,-0.009624,-0.018982,0.009788,0.999915,0.008586,0.018898,-0.008770,0.999783
30977,2,0,-57.0000,9.593563,0.610341,-2.018776,-0.067236,0.049614,0.009606,0.007109,-0.005602,-0.009932,0.352521,0.371666,-1.159744,0.095936,0.006099,-0.020185,1.000000,0.000036,-0.000028,-0.000050,0.999934,0.004319,0.009515,-0.004827,0.489703,1.092744,-0.548443,0.999772,-0.009570,-0.019071,0.009735,0.999916,0.008545,0.018987,-0.008729,0.999782
30978,2,0,-57.0000,9.595004,0.594747,-1.948180,0.004041,0.039245,-0.003933,0.007936,-0.009702,-0.008893,0.355054,0.372043,-1.159734,0.095951,0.005944,-0.019477,1.000000,0.000040,-0.000049,-0.000044,0.999933,0.004312,0.009577,-0.004790,0.488972,1.099814,-0.544286,0.999771,-0.009498,-0.019194,0.009663,0.999917,0.008532,0.019112,-0.008716,0.999779
30979,2,0,-57.0000,9.604026,0.584232,-1.968449,-0.007859,0.056588,0.008217,0.014562,-0.004463,-0.013945,0.348388,0.372142,-1.155966,0.096041,0.005837,-0.019682,1.000000,0.000073,-0.000022,-0.000070,0.999933,0.004279,0.009623,-0.004723,0.485190,1.105038,-0.536589,0.999770,-0.009363,-0.019285,0.009528,0.999919,0.008466,0.019205,-0.008648,0.999778
30980,2,0,-57.0000,9.610279,0.602892,-2.006872,-0.047292,0.053239,0.023135,0.017141,-0.005649,-0.011778,0.351774,0.372147,-1.149407,0.096104,0.006025,-0.020065,1.000000,0.000086,-0.000028,-0.000059,0.999933,0.004262,0.009670,-0.004641,0.483257,1.110391,-0.527142,0.999770,-0.009199,-0.019379,0.009363,0.999921,0.008433,0.019300,-0.008612,0.999777
30981,2,0,-57.0000,9.608998,0.616398,-1.954305,-0.003539,0.022230,0.012362,0.017622,-0.002305,-0.009914,0.352348,0.367180,-1.161451,0.096091,0.006161,-0.019541,1.000000,0.000088,-0.000012,-0.000050,0.999934,0.004246,0.009699,-0.004562,0.481536,1.113639,-0.518067,0.999770,-0.009040,-0.019435,0.009205,0.999922,0.008403,0.019358,-0.008580,0.999776
30982,2,0,-57.0000,9.606038,0.646321,-1.973133,-0.031050,0.001368,0.015129,0.017758,-0.005706,-0.013965,0.354114,0.374954,-1.156570,0.096061,0.006458,-0.019728,1.000000,0.000089,-0.000029,-0.000070,0.999934,0.004220,0.009751,-0.004471,0.478607,1.119487,-0.507679,0.999770,-0.008859,-0.019537,0.009023,0.999924,0.008352,0.019462,-0.008526,0.999774
30983,2,0,-57.0000,9.599463,0.629477,-1.935757,0.008411,0.004366,0.000212,0.016967,-0.001931,-0.011364,0.344179,0.372905,-1.155902,0.095995,0.006291,-0.019356,1.000000,0.000085,-0.000010,-0.000057,0.999934,0.004196,0.009780,-0.004393,0.475975,1.122826,-0.498811,0.999770,-0.008704,-0.019596,0.008868,0.999926,0.008306,0.019522,-0.008478,0.999773
30984,2,0,-57.0000,9.611390,0.589768,-1.937269,0.024008,0.042359,0.009598,0.019509,-0.002793,-0.012838,0.349657,0.366831,-1.158199,0.096115,0.005893,-0.019371,1.000000,0.000098,-0.000014,-0.000064,0.999934,0.004170,0.009815,-0.004311,0.473096,1.126738,-0.489354,0.999770,-0.008539,-0.019664,0.008703,0.999928,0.008255,0.019592,-0.008425,0.999773
30985,2,0,-57.0000,9.605971,0.560189,-1.952865,0.019743,0.076206,0.005458,0.021396,-0.003280,-0.015763,0.352434,0.374268,-1.163954,0.096060,0.005596,-0.019526,1.000000,0.000107,-0.000016,-0.000079,0.999934,0.004133,0.009858,-0.004208,0.468947,1.131659,-0.477586,0.999770,-0.008334,-0.019750,0.008497,0.999930,0.008183,0.019680,-0.008349,0.999771
30986,2,0,-57.0000,9.603007,0.590394,-1.971578,-0.007793,0.055341,0.008224,0.021944,-0.001636,-0.015925,0.352436,0.366288,-1.144065,0.096031,0.005898,-0.019714,1.000000,0.000110,-0.000008,-0.000080,0.999934,0.004096,0.009893,-0.004100,0.464730,1.135554,-0.465194,0.999771,-0.008117,-0.019818,0.008280,0.999933,0.008109,0.019751,-0.008272,0.999771
30987,2,0,-57.0000,9.610959,0.593100,-1.938387,0.024038,0.041830,0.009600,0.025102,-0.002556,-0.019587,0.346602,0.373026,-1.160097,0.096110,0.005924,-0.019382,1.000000,0.000126,-0.000013,-0.000098,0.999935,0.004043,0.009940,-0.003975,0.458876,1.140834,-0.450923,0.999771,-0.007868,-0.019910,0.008029,0.999936,0.008007,0.019846,-0.008165,0.999770
30988,2,0,-57.0000,9.602698,0.592917,-1.972324,-0.007774,0.054992,0.008226,0.029501,-0.002527,-0.018318,0.345231,0.369191,-1.151381,0.096028,0.005923,-0.019721,1.000000,0.000148,-0.000013,-0.000092,0.999935,0.004003,0.009983,-0.003832,0.454384,1.145698,-0.434623,0.999771,-0.007584,-0.019995,0.007744,0.999939,0.007929,0.019934,-0.008082,0.999769
30989,2,0,-57.0000,9.575956,0.615542,-1.967273,-0.015735,0.033176,-0.017452,0.030117,-0.002586,-0.020505,0.351071,0.381320,-1.155985,0.095760,0.006149,-0.019671,1.000000,0.000151,-0.000013,-0.000103,0.999935,0.003952,0.010031,-0.003682,0.448656,1.151157,-0.417437,0.999772,-0.007284,-0.020090,0.007443,0.999942,0.007829,0.020032,-0.007977,0.999768
30990,2,0,-57.0000,9.590280,0.635870,-1.972071,-0.023383,0.016520,-0.001161,0.033900,-0.002500,-0.017047,0.351166,0.368432,-1.153517,0.095904,0.006354,-0.019718,1.000000,0.000169,-0.000013,-0.000085,0.999935,0.003920,0.010071,-0.003532,0.445143,1.155659,-0.400266,0.999772,-0.006984,-0.020169,0.007142,0.999944,0.007768,0.020113,-0.007910,0.999766
30991,2,0,-57.0000,9.578477,0.588873,-1.949754,0.011801,0.053518,-0.020214,0.034476,-0.002244,-0.022873,0.356015,0.377673,-1.156190,0.095786,0.005881,-0.019495,1.000000,0.000172,-0.000011,-0.000114,0.999936,0.003861,0.010122,-0.003358,0.438628,1.161389,-0.380372,0.999773,-0.006637,-0.020269,0.006794,0.999948,0.007654,0.020217,-0.007790,0.999765
30992,2,0,-57.0000,9.578239,0.590429,-1.950453,0.011818,0.053346,-0.020214,0.035377,-0.008049,-0.023847,0.351672,0.367719,-1.153614,0.095784,0.005896,-0.019500,1.000000,0.000177,-0.000040,-0.000119,0.999936,0.003810,0.010202,-0.003178,0.432916,1.170412,-0.359767,0.999772,-0.006278,-0.020426,0.006433,0.999951,0.007554,0.020378,-0.007684,0.999763
30993,2,0,-57.0000,9.559411,0.614910,-1.912652,0.035662,0.018175,-0.044520,0.040569,-0.011803,-0.025169,0.359796,0.381678,-1.149956,0.095596,0.006141,-0.019120,1.000000,0.000203,-0.000059,-0.000126,0.999935,0.003763,0.010301,-0.002975,0.427803,1.181714,-0.336532,0.999770,-0.005872,-0.020623,0.006027,0.999954,0.007465,0.020579,-0.007587,0.999759
30994,2,0,-57.0000,9.629604,0.564019,-1.910762,0.071563,0.065472,0.020369,0.047948,-0.008974,-0.027152,0.358313,0.374703,-1.149422,0.096298,0.005632,-0.019102,1.000000,0.000240,-0.000045,-0.000136,0.999935,0.003710,0.010391,-0.002729,0.421942,1.191942,-0.308377,0.999769,-0.005381,-0.020802,0.005535,0.999958,0.007363,0.020761,-0.007476,0.999757
30995,2,0,-57.0000,9.660550,0.663764,-1.923978,0.033054,-0.022361,0.059845,0.056597,-0.006581,-0.029870,0.353668,0.370868,-1.157727,0.096607,0.006629,-0.019235,1.000000,0.000283,-0.000033,-0.000149,0.999936,0.003649,0.010474,-0.002442,0.415270,1.201315,-0.275464,0.999769,-0.004807,-0.020965,0.004960,0.999961,0.007246,0.020930,-0.007348,0.999754
30996,2,0,-57.0000,9.630689,0.715838,-1.938167,-0.002443,-0.064833,0.036925,0.046128,-0.010206,-0.026237,0.353793,0.377126,-1.157006,0.096309,0.007150,-0.019375,1.000000,0.000231,-0.000051,-0.000131,0.999935,0.003601,0.010568,-0.002205,0.410026,1.211981,-0.248346,0.999767,-0.004333,-0.021151,0.004486,0.999964,0.007155,0.021120,-0.007248,0.999751
30997,2,0,-57.0000,9.651163,0.754173,-1.981523,-0.049506,-0.084640,0.068130,0.035193,-0.004360,-0.023422,0.362817,0.377143,-1.154266,0.096513,0.007534,-0.019812,1.000000,0.000176,-0.000022,-0.000117,0.999935,0.003544,0.010630,-0.002028,0.403743,1.218967,-0.228067,0.999766,-0.003980,-0.021273,0.004130,0.999967,0.007045,0.021245,-0.007131,0.999749
30998,2,0,-57.0000,9.621991,0.717505,-1.973358,-0.034203,-0.051775,0.035551,0.015202,-0.005971,-0.021760,0.355518,0.373438,-1.144906,0.096221,0.007166,-0.019730,1.000000,0.000076,-0.000030,-0.000109,0.999935,0.003477,0.010697,-0.001947,0.396162,1.226633,-0.218911,0.999764,-0.003820,-0.021407,0.003969,0.999968,0.006913,0.021380,-0.006996,0.999747
30999,2,0,-57.0000,9.589918,0.709686,-1.983674,-0.046446,-0.039571,0.005735,0.014627,-0.006222,-0.015932,0.358019,0.374416,-1.147625,0.095900,0.007091,-0.019833,1.000000,0.000073,-0.000031,-0.000080,0.999934,0.003438,0.010755,-0.001878,0.391706,1.233210,-0.211041,0.999762,-0.003682,-0.021522,0.003830,0.999969,0.006835,0.021496,-0.006916,0.999745
31000,2,0,-57.0000,9.624472,0.691091,-1.956110,-0.006617,-0.031435,0.032789,0.010744,-0.003216,-0.011706,0.349077,0.376399,-1.151126,0.096245,0.006906,-0.019559,1.000000,0.000054,-0.000016,-0.000059,0.999934,0.003408,0.010792,-0.001830,0.388344,1.237438,-0.205476,0.999760,-0.003585,-0.021596,0.003733,0.999970,0.006776,0.021571,-0.006855,0.999744
31001,2,0,-57.0000,9.616247,0.690116,-1.989911,-0.038403,-0.018229,0.031418,0.017546,-0.000631,-0.007868,0.353870,0.371124,-1.153042,0.096163,0.006899,-0.019898,1.000000,0.000088,-0.000003,-0.000039,0.999934,0.003399,0.010810,-0.001752,0.387380,1.239394,-0.196602,0.999760,-0.003431,-0.021630,0.003578,0.999971,0.006759,0.021606,-0.006835,0.999743
31002,2,0,-57.0000,9.630620,0.709703,-1.994533,-0.046057,-0.034895,0.047705,0.017546,-0.000632,-0.007868,0.358975,0.373532,-1.147809,0.096307,0.007095,-0.019944,1.000000,0.000088,-0.000003,-0.000039,0.999934,0.003390,0.010825,-0.001687,0.386440,1.241161,-0.189097,0.999760,-0.003300,-0.021661,0.003446,0.999971,0.006743,0.021638,-0.006816,0.999743
31003,2,0,-57.0000,9.587212,0.652344,-1.981583,-0.023119,0.014460,-0.001157,0.013409,-0.005012,-0.002255,0.347179,0.374112,-1.156479,0.095873,0.006524,-0.019813,1.000000,0.000067,-0.000025,-0.000011,0.999934,0.003410,0.010853,-0.001636,0.388783,1.244367,-0.183278,0.999759,-0.003198,-0.021717,0.003346,0.999971,0.006784,0.021694,-0.006855,0.999741
31004,2,0,-57.0000,9.613773,0.631073,-1.987317,-0.015128,0.035944,0.024527,0.019402,0.000270,-0.005130,0.351747,0.375318,-1.148905,0.096138,0.006310,-0.019873,1.000000,0.000097,0.000001,-0.000026,0.999934,0.003414,0.010861,-0.001560,0.389323,1.245155,-0.174520,0.999759,-0.003045,-0.021730,0.003194,0.999972,0.006793,0.021709,-0.006861,0.999741
31005,2,0,-57.0000,9.577855,0.663914,-1.962590,-0.011198,-0.003367,-0.013314,0.016315,-0.000510,-0.003492,0.357843,0.371733,-1.157039,0.095779,0.006639,-0.019625,1.000000,0.000082,-0.000003,-0.000017,0.999934,0.003423,0.010870,-0.001492,0.390486,1.246178,-0.166785,0.999759,-0.002910,-0.021748,0.003059,0.999972,0.006814,0.021728,-0.006878,0.999740
31006,2,0,-57.0000,9.595169,0.654108,-1.948839,0.008706,0.000604,0.000213,0.015225,-0.003802,-0.003155,0.355450,0.372814,-1.157821,0.095952,0.006541,-0.019486,1.000000,0.000076,-0.000019,-0.000016,0.999934,0.003439,0.010893,-0.001435,0.392371,1.248826,-0.160210,0.999759,-0.002796,-0.021794,0.002945,0.999972,0.006846,0.021775,-0.006909,0.999739
31007,2,0,-57.0000,9.585853,0.665736,-1.929631,0.020629,-0.017065,-0.011945,0.013731,0.000664,-0.005662,0.358712,0.370221,-1.159195,0.095859,0.006656,-0.019296,1.000000,0.000069,0.000003,-0.000028,0.999934,0.003434,0.010900,-0.001378,0.391854,1.249661,-0.153666,0.999759,-0.002681,-0.021809,0.002831,0.999973,0.006837,0.021790,-0.006898,0.999739
31008,2,0,-57.0000,9.626924,0.663802,-1.939406,0.020989,-0.012115,0.030026,0.008647,0.002398,-0.002724,0.349600,0.369828,-1.149238,0.096269,0.006638,-0.019395,1.000000,0.000043,0.000012,-0.000014,0.999934,0.003436,0.010894,-0.001343,0.392093,1.248927,-0.149688,0.999759,-0.002612,-0.021796,0.002762,0.999973,0.006842,0.021778,-0.006900,0.999739
31009,2,0,-57.0000,9.580666,0.635360,-1.944573,0.016395,0.016601,-0.016072,0.013842,-0.001353,-0.004040,0.355103,0.370240,-1.151788,0.095807,0.006353,-0.019445,1.000000,0.000069,-0.000007,-0.000020,0.999934,0.003442,0.010908,-0.001288,0.392836,1.250522,-0.143316,0.999759,-0.002501,-0.021824,0.002651,0.999973,0.006855,0.021806,-0.006911,0.999738
31010,2,0,-57.0000,9.626885,0.664139,-1.939484,0.021001,-0.012457,0.030026,0.010533,0.001900,-0.005645,0.357549,0.374645,-1.150518,0.096269,0.006640,-0.019395,1.000000,0.000053,0.000009,-0.000028,0.999934,0.003432,0.010909,-0.001251,0.391821,1.250553,-0.139134,0.999759,-0.002428,-0.021825,0.002578,0.999973,0.006837,0.021807,-0.006891,0.999738
31011,2,0,-57.0000,9.595089,0.655105,-1.948897,0.008765,-0.000244,0.000213,0.011077,0.003545,-0.005813,0.352585,0.374407,-1.153790,0.095951,0.006549,-0.019490,1.000000,0.000055,0.000018,-0.000029,0.999934,0.003419,0.010903,-0.001206,0.390340,1.249880,-0.133969,0.999759,-0.002338,-0.021813,0.002487,0.999974,0.006811,0.021796,-0.006864,0.999739
31012,2,0,-57.0000,9.609600,0.674639,-1.952846,0.001129,-0.016903,0.016498,0.007697,0.008508,-0.005400,0.355518,0.363098,-1.154851,0.096095,0.006745,-0.019532,1.000000,0.000038,0.000043,-0.000027,0.999934,0.003395,0.010873,-0.001181,0.387670,1.246410,-0.131168,0.999761,-0.002289,-0.021752,0.002436,0.999974,0.006764,0.021736,-0.006816,0.999741
31013,2,0,-57.0000,9.627042,0.665302,-1.938305,0.021048,-0.012934,0.030025,0.001119,0.001887,-0.005995,0.350293,0.371285,-1.147133,0.096270,0.006650,-0.019384,1.000000,0.000006,0.000009,-0.000030,0.999934,0.003374,0.010875,-0.001185,0.385219,1.246702,-0.131645,0.999761,-0.002297,-0.021757,0.002444,0.999974,0.006722,0.021741,-0.006773,0.999741
31014,2,0,-57.0000,9.612690,0.646494,-1.933328,0.028689,0.003372,0.013741,-0.002947,0.008624,-0.001378,0.348335,0.370599,-1.155956,0.096126,0.006464,-0.019338,1.000000,-0.000015,0.000043,-0.000007,0.999935,0.003360,0.010837,-0.001210,0.383607,1.242336,-0.134563,0.999762,-0.002348,-0.021681,0.002494,0.999974,0.006694,0.021665,-0.006746,0.999743
31015,2,0,-57.0000,9.620925,0.648648,-1.899048,0.060507,-0.010171,0.015108,0.002097,0.007194,-0.007953,0.352412,0.379265,-1.155994,0.096209,0.006483,-0.018994,1.000000,0.000010,0.000036,-0.000040,0.999935,0.003322,0.010818,-0.001206,0.379207,1.240164,-0.134106,0.999763,-0.002340,-0.021643,0.002484,0.999975,0.006617,0.021627,-0.006669,0.999744
31016,2,0,-57.0000,9.600703,0.688079,-1.930907,0.013034,-0.035093,0.004336,-0.001717,0.008495,-0.005751,0.352526,0.372779,-1.155021,0.096006,0.006878,-0.019313,1.000000,-0.000009,0.000042,-0.000029,0.999936,0.003288,0.010787,-0.001237,0.375260,1.236612,-0.137740,0.999764,-0.002403,-0.021581,0.002545,0.999975,0.006548,0.021565,-0.006601,0.999746
31017,2,0,-57.0000,9.610065,0.677241,-1.949656,0.001155,-0.017742,0.016496,-0.003462,0.005573,-0.006867,0.357006,0.377332,-1.155883,0.096100,0.006769,-0.019499,1.000000,-0.000017,0.000028,-0.000034,0.999936,0.003251,0.010774,-0.001262,0.371078,1.235115,-0.140579,0.999765,-0.002453,-0.021555,0.002593,0.999976,0.006475,0.021539,-0.006529,0.999747
31018,2,0,-57.0000,9.581284,0.639425,-1.940193,0.016455,0.015107,-0.016070,-0.003421,0.005268,-0.003227,0.353899,0.374780,-1.149070,0.095812,0.006392,-0.019405,1.000000,-0.000017,0.000026,-0.000016,0.999936,0.003232,0.010755,-0.001294,0.368874,1.232967,-0.144315,0.999765,-0.002518,-0.021518,0.002657,0.999976,0.006437,0.021501,-0.006492,0.999748
31019,2,0,-57.0000,9.610217,0.678170,-1.948583,0.001177,-0.018062,0.016496,-0.003421,0.005268,-0.003227,0.357868,0.368813,-1.142872,0.096102,0.006780,-0.019488,1.000000,-0.000017,0.000026,-0.000016,0.999936,0.003213,0.010737,-0.001322,0.366668,1.230907,-0.147516,0.999766,-0.002574,-0.021482,0.002712,0.999976,0.006398,0.021465,-0.006455,0.999749
31020,2,0,-57.0000,9.610325,0.678455,-1.947953,0.001205,-0.018223,0.016495,-0.008507,0.007002,-0.000292,0.356597,0.373443,-1.150335,0.096103,0.006784,-0.019483,1.000000,-0.000043,0.000035,-0.000001,0.999937,0.003200,0.010707,-0.001374,0.365060,1.227403,-0.153495,0.999767,-0.002678,-0.021421,0.002815,0.999976,0.006370,0.021403,-0.006429,0.999750
31021,2,0,-57.0000,9.593056,0.688488,-1.961427,-0.018678,-0.022504,0.002967,-0.006509,0.004489,-0.001591,0.351026,0.373403,-1.150258,0.095930,0.006883,-0.019617,1.000000,-0.000033,0.000022,-0.000008,0.999937,0.003187,0.010689,-0.001418,0.363495,1.225447,-0.158628,0.999767,-0.002768,-0.021386,0.002904,0.999976,0.006343,0.021368,-0.006403,0.999751
31022,2,0,-57.0000,9.596071,0.659836,-1.942454,0.008883,-0.002039,0.000213,-0.008980,0.003647,-0.002142,0.357425,0.378476,-1.155964,0.095960,0.006596,-0.019427,1.000000,-0.000045,0.000018,-0.000011,0.999937,0.003170,0.010677,-0.001478,0.361516,1.224004,-0.165509,0.999768,-0.002888,-0.021361,0.003023,0.999976,0.006308,0.021343,-0.006371,0.999752
31023,2,0,-57.0000,9.593187,0.688978,-1.960614,-0.018651,-0.022824,0.002966,-0.012028,0.002562,0.003133,0.352684,0.371231,-1.142870,0.095932,0.006890,-0.019608,1.000000,-0.000060,0.000013,0.000016,0.999937,0.003176,0.010660,-0.001555,0.362145,1.222160,-0.174300,0.999768,-0.003041,-0.021329,0.003177,0.999975,0.006319,0.021309,-0.006385,0.999753
31024,2,0,-57.0000,9.608387,0.619620,-1.942841,0.024582,0.035785,0.009622,-0.008142,-0.000448,-0.001087,0.356260,0.368898,-1.150022,0.096084,0.006195,-0.019428,1.000000,-0.000041,-0.000002,-0.000005,0.999937,0.003172,0.010665,-0.001612,0.361567,1.222764,-0.180833,0.999767,-0.003155,-0.021340,0.003291,0.999975,0.006309,0.021319,-0.006378,0.999752
31025,2,0,-57.0000,9.605468,0.648831,-1.961150,-0.002952,0.015001,0.012376,-0.009596,0.003710,0.000046,0.357430,0.380301,-1.148506,0.096054,0.006487,-0.019614,1.000000,-0.000048,0.000019,0.000000,0.999937,0.003164,0.010649,-0.001673,0.360643,1.220910,-0.187898,0.999768,-0.003279,-0.021307,0.003413,0.999974,0.006293,0.021286,-0.006364,0.999753
31026,2,0,-57.0000,9.604380,0.662074,-1.907680,0.040764,-0.016059,0.001577,-0.009668,0.005418,0.002065,0.348635,0.374914,-1.156013,0.096043,0.006621,-0.019080,1.000000,-0.000048,0.000027,0.000010,0.999937,0.003163,0.010622,-0.001734,0.360399,1.217804,-0.194886,0.999768,-0.003401,-0.021253,0.003535,0.999974,0.006289,0.021231,-0.006362,0.999754
31027,2,0,-57.0000,9.605667,0.648983,-1.960124,-0.002901,0.014688,0.012377,-0.010868,0.004142,0.000780,0.355468,0.377727,-1.150864,0.096056,0.006489,-0.019604,1.000000,-0.000054,0.000021,0.000004,0.999937,0.003157,0.010602,-0.001802,0.359623,1.215576,-0.202728,0.999769,-0.003537,-0.021214,0.003671,0.999974,0.006275,0.021191,-0.006352,0.999755
31028,2,0,-57.0000,9.628272,0.669853,-1.930616,0.021234,-0.015367,0.030021,-0.013300,0.002992,0.003868,0.345718,0.377135,-1.150728,0.096282,0.006699,-0.019308,1.000000,-0.000067,0.000015,0.000019,0.999937,0.003164,0.010581,-0.001895,0.360364,1.213228,-0.213386,0.999769,-0.003723,-0.021173,0.003857,0.999973,0.006288,0.021149,-0.006368,0.999756
31029,2,0,-57.0000,9.615158,0.637568,-1.978524,-0.014774,0.031889,0.024542,-0.007963,0.008645,-0.000456,0.352909,0.372635,-1.151366,0.096151,0.006375,-0.019790,1.000000,-0.000040,0.000043,-0.000002,0.999938,0.003148,0.010543,-0.001947,0.358408,1.208818,-0.219310,0.999770,-0.003827,-0.021096,0.003960,0.999973,0.006254,0.021072,-0.006336,0.999758
31030,2,0,-57.0000,9.620439,0.668175,-1.962873,-0.010552,-0.002287,0.028657,-0.013917,0.003054,0.006055,0.362807,0.373711,-1.147552,0.096204,0.006683,-0.019631,1.000000,-0.000070,0.000015,0.000030,0.999938,0.003165,0.010517,-0.002047,0.360241,1.205946,-0.230836,0.999770,-0.004028,-0.021046,0.004161,0.999972,0.006286,0.021020,-0.006372,0.999759
31031,2,0,-57.0000,9.620525,0.667988,-1.962517,-0.010533,-0.002447,0.028657,-0.012029,0.002558,0.003135,0.355792,0.375241,-1.151175,0.096205,0.006680,-0.019627,1.000000,-0.000060,0.000013,0.000016,0.999938,0.003171,0.010501,-0.002124,0.360874,1.204104,-0.239627,0.999770,-0.004181,-0.021014,0.004315,0.999971,0.006297,0.020987,-0.006386,0.999759
31032,2,0,-57.0000,9.557024,0.649128,-1.981376,-0.034978,0.022183,-0.030959,-0.009013,0.005045,0.003519,0.355121,0.371953,-1.149554,0.095570,0.006492,-0.019816,1.000000,-0.000045,0.000025,0.000018,0.999938,0.003178,0.010474,-0.002176,0.361563,1.201010,-0.245597,0.999771,-0.004286,-0.020960,0.004419,0.999970,0.006309,0.020932,-0.006400,0.999760
31033,2,0,-57.0000,9.601126,0.617811,-1.972340,-0.007040,0.047761,0.008265,-0.008175,0.000951,0.004572,0.356226,0.373757,-1.151507,0.096011,0.006179,-0.019724,1.000000,-0.000041,0.000005,0.000023,0.999938,0.003197,0.010462,-0.002236,0.363728,1.199730,-0.252422,0.999771,-0.004405,-0.020938,0.004538,0.999970,0.006347,0.020909,-0.006440,0.999761
31034,2,0,-57.0000,9.594854,0.600072,-1.934075,0.032433,0.050693,-0.006651,-0.007741,0.004612,0.002786,0.353424,0.378835,-1.145747,0.095948,0.006001,-0.019343,1.000000,-0.000039,0.000023,0.000014,0.999938,0.003203,0.010437,-0.002286,0.364343,1.196879,-0.258125,0.999772,-0.004504,-0.020888,0.004638,0.999969,0.006358,0.020859,-0.006453,0.999762
31035,2,0,-57.0000,9.589073,0.658144,-1.970634,-0.022667,0.009304,-0.001150,-0.008325,0.003275,-0.000687,0.350677,0.368657,-1.145467,0.095890,0.006580,-0.019708,1.000000,-0.000042,0.000016,-0.000003,0.999938,0.003194,0.010424,-0.002340,0.363275,1.195401,-0.264414,0.999772,-0.004614,-0.020862,0.004747,0.999969,0.006339,0.020832,-0.006437,0.999762
31036,2,0,-57.0000,9.592060,0.629235,-1.951839,0.004910,0.029763,-0.003900,-0.005742,0.002101,0.001484,0.353540,0.372779,-1.149747,0.095920,0.006292,-0.019520,1.000000,-0.000029,0.000011,0.000007,0.999938,0.003200,0.010413,-0.002388,0.363858,1.194091,-0.269924,0.999772,-0.004710,-0.020839,0.004843,0.999968,0.006349,0.020809,-0.006449,0.999763
31037,2,0,-57.0000,9.629058,0.669422,-1.926840,0.021401,-0.016813,0.030019,-0.003965,0.003623,-0.003056,0.353583,0.377067,-1.155225,0.096290,0.006692,-0.019270,1.000000,-0.000020,0.000018,-0.000015,0.999938,0.003184,0.010402,-0.002420,0.362001,1.192882,-0.273505,0.999772,-0.004773,-0.020818,0.004905,0.999968,0.006317,0.020787,-0.006417,0.999763
31038,2,0,-57.0000,9.606618,0.648868,-1.955495,-0.002716,0.012937,0.012379,-0.004037,0.005330,-0.001036,0.348697,0.372999,-1.153290,0.096066,0.006488,-0.019558,1.000000,-0.000020,0.000027,-0.000005,0.999938,0.003174,0.010380,-0.002454,0.360873,1.190316,-0.277457,0.999772,-0.004841,-0.020773,0.004973,0.999968,0.006297,0.020742,-0.006399,0.999764
31039,2,0,-57.0000,9.597378,0.660445,-1.935778,0.009186,-0.004738,0.000212,-0.003744,-0.000410,0.000183,0.353441,0.371980,-1.154203,0.095974,0.006604,-0.019358,1.000000,-0.000019,-0.000002,0.000001,0.999938,0.003180,0.010382,-0.002488,0.361533,1.190627,-0.281384,0.999772,-0.004910,-0.020779,0.005042,0.999967,0.006309,0.020747,-0.006412,0.999764
31040,2,0,-57.0000,9.606659,0.649089,-1.955221,-0.002701,0.012598,0.012380,-0.000655,0.000371,-0.001452,0.351198,0.369289,-1.152280,0.096067,0.006490,-0.019552,1.000000,-0.000003,0.000002,-0.000007,0.999938,0.003182,0.010383,-0.002508,0.361663,1.190702,-0.283647,0.999772,-0.004949,-0.020780,0.005082,0.999967,0.006311,0.020748,-0.006415,0.999764
31041,2,0,-57.0000,9.614727,0.650852,-1.921705,0.029105,-0.000973,0.013740,-0.002472,-0.000842,-0.000552,0.355650,0.374098,-1.149656,0.096147,0.006508,-0.019217,1.000000,-0.000012,-0.000004,-0.000003,0.999938,0.003186,0.010389,-0.002535,0.362174,1.191387,-0.286798,0.999771,-0.005004,-0.020792,0.005137,0.999967,0.006320,0.020760,-0.006425,0.999764
31042,2,0,-57.0000,9.579989,0.670673,-1.949836,-0.010689,-0.009358,-0.013318,0.002433,0.001151,-0.003087,0.356575,0.369840,-1.146104,0.095800,0.006705,-0.019499,1.000000,0.000012,0.000006,-0.000015,0.999938,0.003182,0.010389,-0.002532,0.361654,1.191464,-0.286453,0.999771,-0.004998,-0.020793,0.005131,0.999967,0.006311,0.020761,-0.006416,0.999764
31043,2,0,-57.0000,9.601473,0.618811,-1.970334,-0.006868,0.046122,0.008273,0.001382,-0.002449,0.000885,0.359261,0.374761,-1.147367,0.096015,0.006189,-0.019702,1.000000,0.000007,-0.000012,0.000004,0.999938,0.003200,0.010400,-0.002543,0.363696,1.192712,-0.287638,0.999771,-0.005019,-0.020815,0.005152,0.999967,0.006346,0.020783,-0.006452,0.999763
31044,2,0,-57.0000,9.598503,0.648041,-1.988933,-0.034386,0.025349,0.011021,0.000578,0.000247,-0.005826,0.354832,0.373523,-1.147261,0.095985,0.006478,-0.019889,1.000000,0.000003,0.000001,-0.000029,0.999938,0.003182,0.010412,-0.002539,0.361620,1.194019,-0.287218,0.999770,-0.005012,-0.020838,0.005144,0.999967,0.006310,0.020806,-0.006416,0.999763
31045,2,0,-58.0000,9.607778,0.636987,-2.008314,-0.046247,0.042706,0.023191,-0.002582,0.001174,-0.002171,0.355838,0.371298,-1.151432,0.096078,0.006369,-0.020084,1.000000,-0.000013,0.000006,-0.000011,0.999937,0.003175,0.010411,-0.002565,0.360873,1.193945,-0.290195,0.999770,-0.005064,-0.020837,0.005196,0.999967,0.006297,0.020804,-0.006404,0.999763
31046,2,0,-57.0000,9.623921,0.640616,-1.941211,0.017351,0.015706,0.025910,-0.002511,-0.000534,-0.004191,0.348379,0.370882,-1.148008,0.096239,0.006404,-0.019412,1.000000,-0.000013,-0.000003,-0.000021,0.999937,0.003163,0.010422,-0.002584,0.359468,1.195241,-0.292323,0.999769,-0.005101,-0.020859,0.005233,0.999967,0.006272,0.020827,-0.006380,0.999763
31047,2,0,-57.0000,9.620997,0.670094,-1.959482,-0.010197,-0.005060,0.028657,-0.005892,0.004425,-0.003773,0.354787,0.372496,-1.150981,0.096210,0.006699,-0.019597,1.000000,-0.000029,0.000022,-0.000019,0.999937,0.003141,0.010409,-0.002623,0.356846,1.193751,-0.296886,0.999770,-0.005180,-0.020833,0.005311,0.999967,0.006227,0.020800,-0.006336,0.999764
31048,2,0,-57.0000,9.624001,0.641536,-1.940508,0.017377,0.015369,0.025910,-0.007164,0.004857,-0.003039,0.356128,0.373671,-1.153228,0.096240,0.006413,-0.019408,1.000000,-0.000036,0.000024,-0.000015,0.999938,0.003121,0.010392,-0.002670,0.354464,1.191814,-0.302290,0.999770,-0.005275,-0.020800,0.005405,0.999966,0.006185,0.020766,-0.006296,0.999765
31049,2,0,-58.0000,9.618909,0.611363,-1.955169,0.013181,0.049230,0.021806,-0.005165,0.002347,-0.004341,0.354164,0.374609,-1.150116,0.096189,0.006111,-0.019553,1.000000,-0.000026,0.000012,-0.000022,0.999938,0.003100,0.010390,-0.002706,0.352038,1.191551,-0.306458,0.999769,-0.005348,-0.020795,0.005476,0.999966,0.006143,0.020761,-0.006255,0.999765
31050,2,0,-57.0000,9.609649,0.623331,-1.935394,0.025084,0.031547,0.009636,0.000395,0.003971,-0.005424,0.353219,0.374950,-1.150182,0.096096,0.006231,-0.019356,1.000000,0.000002,0.000020,-0.000027,0.999938,0.003077,0.010382,-0.002710,0.349429,1.190639,-0.306929,0.999770,-0.005356,-0.020779,0.005484,0.999966,0.006097,0.020746,-0.006210,0.999765
31051,2,0,-57.0000,9.630479,0.660500,-1.977373,-0.022008,0.011795,0.040828,0.004794,0.004011,-0.004154,0.357190,0.375874,-1.153432,0.096305,0.006603,-0.019776,1.000000,0.000024,0.000020,-0.000021,0.999938,0.003064,0.010371,-0.002697,0.347970,1.189411,-0.305454,0.999770,-0.005330,-0.020758,0.005457,0.999967,0.006072,0.020725,-0.006184,0.999766
31052,2,0,-57.0000,9.626368,0.703140,-1.942437,-0.005896,-0.039903,0.032759,-0.002188,0.005144,-0.007594,0.348577,0.374713,-1.151776,0.096263,0.007028,-0.019427,1.000000,-0.000011,0.000026,-0.000038,0.999938,0.003026,0.010362,-0.002713,0.343644,1.188313,-0.307296,0.999771,-0.005362,-0.020738,0.005488,0.999967,0.005996,0.020706,-0.006109,0.999767
31053,2,0,-57.0000,9.594615,0.694226,-1.951753,-0.018119,-0.027652,0.002955,-0.000111,0.002016,-0.001619,0.353986,0.370720,-1.143369,0.095946,0.006941,-0.019519,1.000000,-0.000001,0.000010,-0.000008,0.999938,0.003024,0.010356,-0.002727,0.343319,1.187667,-0.308910,0.999771,-0.005390,-0.020727,0.005516,0.999967,0.005991,0.020694,-0.006104,0.999767
31054,2,0,-57.0000,9.589480,0.663882,-1.966722,-0.022320,0.006203,-0.001147,-0.002510,-0.000534,-0.004191,0.355334,0.382782,-1.146363,0.095895,0.006637,-0.019667,1.000000,-0.000013,-0.000003,-0.000021,0.999938,0.003012,0.010366,-0.002753,0.341903,1.188856,-0.311913,0.999770,-0.005443,-0.020748,0.005568,0.999967,0.005966,0.020715,-0.006080,0.999767
31055,2,0,-57.0000,9.597521,0.665916,-1.933193,0.009479,-0.007380,0.000210,-0.000039,0.000309,-0.003639,0.352245,0.370922,-1.156956,0.095975,0.006657,-0.019332,1.000000,-0.000000,0.000002,-0.000018,0.999938,0.003003,0.010372,-0.002765,0.340860,1.189529,-0.313338,0.999770,-0.005468,-0.020760,0.005592,0.999967,0.005948,0.020726,-0.006063,0.999767
31056,2,0,-57.0000,9.575020,0.645383,-1.962256,-0.014618,0.022398,-0.017420,0.002433,0.001152,-0.003087,0.347588,0.377969,-1.155066,0.095750,0.006453,-0.019623,1.000000,0.000012,0.000006,-0.000015,0.999938,0.002997,0.010373,-0.002768,0.340195,1.189621,-0.313709,0.999769,-0.005474,-0.020761,0.005598,0.999967,0.005936,0.020728,-0.006051,0.999767
31057,2,0,-57.0000,9.589436,0.664881,-1.966600,-0.022266,0.005733,-0.001146,-0.000039,0.000309,-0.003639,0.345315,0.373363,-1.150899,0.095894,0.006647,-0.019666,1.000000,-0.000000,0.000002,-0.000018,0.999938,0.002988,0.010379,-0.002781,0.339152,1.190294,-0.315134,0.999769,-0.005499,-0.020773,0.005623,0.999967,0.005918,0.020740,-0.006033,0.999767
31058,2,0,-57.0000,9.586475,0.694169,-1.985073,-0.049868,-0.015024,0.001597,0.000617,-0.000062,-0.002186,0.349109,0.374309,-1.139944,0.095865,0.006941,-0.019851,1.000000,0.000003,-0.000000,-0.000011,0.999938,0.002987,0.010382,-0.002807,0.339044,1.190611,-0.318102,0.999769,-0.005551,-0.020779,0.005675,0.999966,0.005916,0.020745,-0.006033,0.999767
31059,2,0,-57.0000,9.609718,0.626729,-1.933958,0.025209,0.030096,0.009640,-0.002621,0.001481,-0.005809,0.358968,0.376677,-1.151288,0.096097,0.006264,-0.019340,1.000000,-0.000013,0.000007,-0.000029,0.999938,0.002964,0.010386,-0.002829,0.336322,1.191096,-0.320718,0.999768,-0.005596,-0.020787,0.005719,0.999966,0.005869,0.020754,-0.005986,0.999767
31060,2,0,-57.0000,9.597486,0.667624,-1.932780,0.009535,-0.008167,0.000209,0.002977,0.002798,-0.003253,0.367115,0.380637,-1.152607,0.095975,0.006675,-0.019329,1.000000,0.000015,0.000014,-0.000016,0.999938,0.002955,0.010380,-0.002826,0.335296,1.190409,-0.320404,0.999769,-0.005591,-0.020775,0.005714,0.999967,0.005851,0.020742,-0.005968,0.999767
31061,2,0,-57.0000,9.597500,0.668028,-1.932569,0.009553,-0.008327,0.000209,0.001122,0.001892,-0.005991,0.353192,0.378897,-1.160868,0.095975,0.006678,-0.019327,1.000000,0.000006,0.000009,-0.000030,0.999938,0.002934,0.010382,-0.002830,0.332846,1.190697,-0.320880,0.999768,-0.005599,-0.020780,0.005721,0.999967,0.005808,0.020747,-0.005926,0.999767
31062,2,0,-57.0000,9.614890,0.658677,-1.918218,0.029504,-0.004387,0.013738,-0.003966,0.003620,-0.003055,0.352541,0.369406,-1.151046,0.096149,0.006585,-0.019184,1.000000,-0.000020,0.000018,-0.000015,0.999938,0.002917,0.010373,-0.002856,0.330911,1.189638,-0.323813,0.999768,-0.005650,-0.020762,0.005771,0.999967,0.005774,0.020728,-0.005893,0.999768
31063,2,0,-57.0000,9.630583,0.665213,-1.975284,-0.021796,0.009899,0.040831,-0.001422,0.002756,-0.004523,0.355040,0.383240,-1.148793,0.096306,0.006650,-0.019754,1.000000,-0.000007,0.000014,-0.000023,0.999938,0.002898,0.010369,-0.002873,0.328759,1.189178,-0.325841,0.999768,-0.005686,-0.020754,0.005806,0.999967,0.005737,0.020720,-0.005856,0.999768
31064,2,0,-57.0000,9.641687,0.638286,-1.922660,0.037581,0.016900,0.039443,-0.000518,0.009770,-0.004453,0.344855,0.368644,-1.142606,0.096416,0.006381,-0.019231,1.000000,-0.000003,0.000049,-0.000022,0.999938,0.002869,0.010332,-0.002885,0.325349,1.184941,-0.327271,0.999770,-0.005711,-0.020680,0.005829,0.999967,0.005677,0.020647,-0.005796,0.999770
31065,2,0,-57.0000,9.624440,0.648581,-1.935983,0.017692,0.012654,0.025913,-0.004077,0.005635,-0.004673,0.347429,0.379024,-1.148323,0.096244,0.006483,-0.019363,1.000000,-0.000020,0.000028,-0.000023,0.999939,0.002842,0.010315,-0.002915,0.322236,1.182972,-0.330678,0.999770,-0.005770,-0.020645,0.005887,0.999967,0.005623,0.020612,-0.005743,0.999771
31066,2,0,-57.0000,9.583445,0.651086,-1.925583,0.017310,0.007394,-0.016063,-0.002878,0.006911,-0.003387,0.351421,0.370976,-1.153069,0.095834,0.006509,-0.019259,1.000000,-0.000014,0.000035,-0.000017,0.999939,0.002820,0.010288,-0.002951,0.319710,1.179866,-0.334835,0.999771,-0.005843,-0.020591,0.005959,0.999967,0.005579,0.020558,-0.005700,0.999772
31067,2,0,-58.0000,9.600925,0.641553,-1.910833,0.037237,0.011315,-0.002533,0.001520,0.006952,-0.002116,0.350212,0.372200,-1.149355,0.096009,0.006415,-0.019112,1.000000,0.000008,0.000035,-0.000011,0.999939,0.002808,0.010260,-0.002954,0.318353,1.176662,-0.335308,0.999772,-0.005851,-0.020535,0.005966,0.999967,0.005555,0.020502,-0.005676,0.999774
31068,2,0,-57.0000,9.578528,0.621230,-1.939436,0.013138,0.041073,-0.020156,0.000357,0.004278,-0.009061,0.347012,0.372878,-1.145259,0.095785,0.006208,-0.019396,1.000000,0.000002,0.000021,-0.000045,0.999939,0.002769,0.010256,-0.002957,0.313885,1.176186,-0.335591,0.999772,-0.005856,-0.020527,0.005970,0.999967,0.005477,0.020494,-0.005598,0.999774
31069,2,0,-57.0000,9.583676,0.652597,-1.923920,0.017349,0.006887,-0.016062,-0.002805,0.005203,-0.005407,0.354900,0.373927,-1.155975,0.095836,0.006523,-0.019242,1.000000,-0.000014,0.000026,-0.000027,0.999939,0.002741,0.010242,-0.002979,0.310625,1.174591,-0.338222,0.999772,-0.005902,-0.020499,0.006014,0.999967,0.005420,0.020466,-0.005542,0.999775
31070,2,0,-57.0000,9.580791,0.682184,-1.941883,-0.010229,-0.013873,-0.013322,-0.002805,0.005202,-0.005407,0.350460,0.376431,-1.150895,0.095808,0.006819,-0.019421,1.000000,-0.000014,0.000026,-0.000027,0.999940,0.002713,0.010227,-0.003002,0.307453,1.172917,-0.340894,0.999773,-0.005948,-0.020470,0.006059,0.999967,0.005365,0.020437,-0.005488,0.999776
31071,2,0,-57.0000,9.621948,0.680593,-1.951175,-0.009843,-0.008939,0.028654,-0.005238,0.004050,-0.002321,0.350209,0.375744,-1.150846,0.096219,0.006804,-0.019514,1.000000,-0.000026,0.000020,-0.000012,0.999940,0.002699,0.010214,-0.003040,0.305747,1.171333,-0.345250,0.999773,-0.006024,-0.020442,0.006135,0.999967,0.005335,0.020409,-0.005459,0.999777
31072,2,0,-57.0000,9.604694,0.690810,-1.964582,-0.029750,-0.013178,0.015124,-0.004262,0.009356,-0.004270,0.351289,0.371774,-1.149811,0.096046,0.006906,-0.019650,1.000000,-0.000021,0.000047,-0.000021,0.999940,0.002667,0.010177,-0.003075,0.302104,1.167193,-0.349273,0.999774,-0.006095,-0.020370,0.006203,0.999967,0.005272,0.020337,-0.005397,0.999779
31073,2,0,-57.0000,9.582399,0.670440,-1.992776,-0.053828,0.016613,-0.002496,-0.005535,0.009787,-0.003536,0.353291,0.375753,-1.156909,0.095823,0.006702,-0.019933,1.000000,-0.000028,0.000049,-0.000018,0.999940,0.002637,0.010139,-0.003111,0.298602,1.162770,-0.353470,0.999775,-0.006168,-0.020293,0.006275,0.999967,0.005210,0.020260,-0.005337,0.999781
31074,2,0,-57.0000,9.607960,0.662605,-1.944265,-0.002137,0.007066,0.012385,-0.001680,0.008184,-0.002099,0.354564,0.378727,-1.156159,0.096079,0.006625,-0.019447,1.000000,-0.000008,0.000041,-0.000010,0.999941,0.002621,0.010105,-0.003127,0.296742,1.158859,-0.355371,0.999776,-0.006201,-0.020225,0.006307,0.999967,0.005178,0.020192,-0.005304,0.999782
31075,2,0,-57.0000,9.595811,0.703190,-1.942642,-0.017842,-0.031196,0.002945,-0.003385,0.004955,0.000418,0.358394,0.376735,-1.157145,0.095958,0.007032,-0.019429,1.000000,-0.000017,0.000025,0.000002,0.999941,0.002619,0.010082,-0.003158,0.296521,1.156236,-0.358933,0.999777,-0.006263,-0.020179,0.006369,0.999966,0.005174,0.020146,-0.005302,0.999783
31076,2,0,-57.0000,9.581531,0.683982,-1.937596,-0.010137,-0.014853,-0.013324,0.001446,0.008658,-0.000094,0.354592,0.378471,-1.159645,0.095814,0.006840,-0.019380,1.000000,0.000007,0.000043,-0.000000,0.999941,0.002614,0.010043,-0.003159,0.295901,1.151772,-0.359045,0.999778,-0.006265,-0.020101,0.006370,0.999966,0.005163,0.020068,-0.005290,0.999785
31077,2,0,-57.0000,9.581696,0.683915,-1.936804,-0.010120,-0.015012,-0.013324,-0.001643,0.007875,0.001539,0.358563,0.373931,-1.147978,0.095816,0.006840,-0.019372,1.000000,-0.000008,0.000039,0.000008,0.999941,0.002614,0.010004,-0.003182,0.295905,1.147352,-0.361639,0.999780,-0.006310,-0.020024,0.006415,0.999966,0.005163,0.019990,-0.005291,0.999786
31078,2,0,-57.0000,9.567434,0.664483,-1.931744,-0.002408,0.001328,-0.029592,0.002211,0.006273,0.002977,0.353734,0.374753,-1.154011,0.095674,0.006646,-0.019320,1.000000,0.000011,0.000031,0.000015,0.999942,0.002627,0.009971,-0.003180,0.297475,1.143586,-0.361406,0.999781,-0.006306,-0.019958,0.006411,0.999966,0.005191,0.019925,-0.005318,0.999787
31079,2,0,-57.0000,9.611636,0.633157,-1.922297,0.025570,0.026834,0.009648,0.000828,0.008719,0.002093,0.348103,0.375569,-1.153176,0.096115,0.006333,-0.019227,1.000000,0.000004,0.000044,0.000010,0.999942,0.002631,0.009928,-0.003190,0.297900,1.138595,-0.362637,0.999783,-0.006328,-0.019871,0.006432,0.999966,0.005198,0.019837,-0.005325,0.999789
31080,2,0,-57.0000,9.626224,0.652124,-1.925899,0.017896,0.010155,0.025916,-0.000989,0.007505,0.002992,0.348186,0.376543,-1.157419,0.096261,0.006523,-0.019263,1.000000,-0.000005,0.000038,0.000015,0.999942,0.002640,0.009887,-0.003212,0.298889,1.134004,-0.365142,0.999784,-0.006372,-0.019791,0.006476,0.999965,0.005216,0.019757,-0.005343,0.999791
31081,2,0,-57.0000,9.603942,0.631040,-1.954357,-0.006176,0.039952,0.008300,0.000284,0.007074,0.002258,0.353062,0.377180,-1.152638,0.096039,0.006312,-0.019547,1.000000,0.000001,0.000035,0.000011,0.999943,0.002646,0.009851,-0.003226,0.299658,1.129866,-0.366754,0.999785,-0.006400,-0.019719,0.006504,0.999965,0.005229,0.019684,-0.005356,0.999792
31082,2,0,-57.0000,9.594770,0.642357,-1.934161,0.005688,0.022264,-0.003880,0.001446,0.008657,-0.000093,0.354166,0.367153,-1.156083,0.095947,0.006424,-0.019346,1.000000,0.000007,0.000043,-0.000000,0.999943,0.002641,0.009811,-0.003235,0.299053,1.125252,-0.367836,0.999787,-0.006419,-0.019638,0.006522,0.999965,0.005218,0.019604,-0.005345,0.999794
31083,2,0,-57.0000,9.631774,0.682258,-1.908678,0.022113,-0.024363,0.030001,-0.001533,0.005860,0.003157,0.351364,0.383348,-1.151566,0.096317,0.006824,-0.019090,1.000000,-0.000008,0.000029,0.000016,0.999943,0.002652,0.009779,-0.003260,0.300316,1.121592,-0.370605,0.999787,-0.006467,-0.019574,0.006571,0.999965,0.005240,0.019540,-0.005368,0.999795
31084,2,0,-57.0000,9.615941,0.678661,-1.974903,-0.041407,0.002375,0.027304,0.001297,0.012070,0.003949,0.357383,0.378844,-1.147254,0.096158,0.006789,-0.019755,1.000000,0.000006,0.000060,0.000020,0.999944,0.002660,0.009716,-0.003266,0.301181,1.114423,-0.371301,0.999790,-0.006479,-0.019449,0.006583,0.999965,0.005256,0.019414,-0.005383,0.999797
31085,2,0,-57.0000,9.627121,0.650918,-1.921820,0.017972,0.009333,0.025917,-0.006734,0.009600,0.004473,0.350488,0.375430,-1.150154,0.096270,0.006511,-0.019223,1.000000,-0.000034,0.000048,0.000022,0.999944,0.002665,0.009665,-0.003315,0.301784,1.108506,-0.377001,0.999791,-0.006579,-0.019346,0.006682,0.999964,0.005266,0.019311,-0.005394,0.999799
31086,2,0,-57.0000,9.624400,0.679530,-1.939418,-0.009587,-0.011392,0.028652,-0.002880,0.007996,0.005911,0.355527,0.382585,-1.151869,0.096243,0.006798,-0.019398,1.000000,-0.000014,0.000040,0.000030,0.999945,0.002684,0.009619,-0.003346,0.303865,1.103244,-0.380461,0.999793,-0.006639,-0.019254,0.006742,0.999963,0.005302,0.019218,-0.005431,0.999801
31087,2,0,-57.0000,9.605115,0.629199,-1.949182,-0.006060,0.038983,0.008304,-0.005536,0.010874,0.005761,0.348818,0.372743,-1.156297,0.096050,0.006294,-0.019497,1.000000,-0.000028,0.000054,0.000029,0.999945,0.002694,0.009559,-0.003390,0.305038,1.096383,-0.385575,0.999794,-0.006728,-0.019134,0.006831,0.999962,0.005323,0.019098,-0.005453,0.999803
31088,2,0,-57.0000,9.616876,0.676878,-1.970958,-0.041320,0.001747,0.027304,-0.001139,0.010915,0.007035,0.341160,0.377158,-1.159299,0.096167,0.006772,-0.019715,1.000000,-0.000006,0.000055,0.000035,0.999945,0.002715,0.009496,-0.003415,0.307388,1.089226,-0.388438,0.999796,-0.006778,-0.019009,0.006881,0.999962,0.005364,0.018972,-0.005494,0.999805
31089,2,0,-57.0000,9.584049,0.679826,-1.926576,-0.009908,-0.016953,-0.013327,-0.004957,0.012209,0.009235,0.350421,0.374031,-1.151882,0.095839,0.006802,-0.019272,1.000000,-0.000025,0.000061,0.000046,0.999946,0.002739,0.009424,-0.003460,0.310195,1.080953,-0.393536,0.999798,-0.006867,-0.018865,0.006970,0.999961,0.005413,0.018827,-0.005543,0.999807
31090,2,0,-57.0000,9.603016,0.656235,-1.964311,-0.033634,0.017922,0.011040,-0.006155,0.010934,0.007947,0.349077,0.372456,-1.151623,0.096029,0.006566,-0.019649,1.000000,-0.000031,0.000055,0.000040,0.999946,0.002760,0.009358,-0.003518,0.312509,1.073420,-0.400185,0.999800,-0.006983,-0.018734,0.007087,0.999960,0.005453,0.018695,-0.005585,0.999810
31091,2,0,-57.0000,9.587502,0.649338,-1.905881,0.017688,0.003283,-0.016061,-0.001758,0.010974,0.009222,0.350301,0.383630,-1.149373,0.095874,0.006498,-0.019064,1.000000,-0.000009,0.000055,0.000046,0.999947,0.002790,0.009291,-0.003547,0.315932,1.065803,-0.403526,0.999802,-0.007042,-0.018601,0.007145,0.999959,0.005513,0.018561,-0.005645,0.999812
31092,2,0,-57.0000,9.584871,0.677589,-1.923269,-0.009894,-0.017434,-0.013328,-0.002412,0.011344,0.007770,0.346208,0.383277,-1.142370,0.095847,0.006779,-0.019238,1.000000,-0.000012,0.000057,0.000039,0.999947,0.002811,0.009225,-0.003583,0.318381,1.058263,-0.407612,0.999804,-0.007113,-0.018469,0.007217,0.999959,0.005556,0.018429,-0.005688,0.999814
31093,2,0,-57.0000,9.619808,0.657140,-1.893933,0.029948,-0.009475,0.013733,-0.003031,0.011405,0.009956,0.352263,0.375865,-1.156960,0.096197,0.006576,-0.018945,1.000000,-0.000015,0.000057,0.000050,0.999948,0.002842,0.009155,-0.003619,0.321956,1.050274,-0.411730,0.999806,-0.007185,-0.018330,0.007289,0.999958,0.005618,0.018289,-0.005751,0.999816
31094,2,0,-57.0000,9.597648,0.635369,-1.922153,0.005887,0.020356,-0.003876,0.003367,0.008938,0.009930,0.343648,0.378217,-1.149833,0.095975,0.006359,-0.019226,1.000000,0.000017,0.000045,0.000050,0.999948,0.002883,0.009097,-0.003631,0.326639,1.043586,-0.413171,0.999808,-0.007210,-0.018213,0.007315,0.999957,0.005700,0.018171,-0.005832,0.999818
31095,2,0,-57.0000,9.605866,0.635940,-1.887738,0.037670,0.006728,-0.002531,0.002094,0.009368,0.010664,0.355483,0.368952,-1.145894,0.096057,0.006365,-0.018882,1.000000,0.000010,0.000047,0.000053,0.999948,0.002926,0.009035,-0.003644,0.331592,1.036533,-0.414549,0.999810,-0.007234,-0.018090,0.007340,0.999956,0.005786,0.018047,-0.005918,0.999820
31096,2,0,-57.0000,9.580822,0.643272,-1.934433,-0.013984,0.015970,-0.017406,0.002605,0.011322,0.006861,0.347890,0.372627,-1.155373,0.095807,0.006436,-0.019350,1.000000,0.000013,0.000057,0.000034,0.999949,0.002949,0.008971,-0.003646,0.334268,1.029208,-0.414843,0.999812,-0.007239,-0.017962,0.007345,0.999956,0.005833,0.017919,-0.005964,0.999822
31097,2,0,-57.0000,9.607758,0.621339,-1.938649,-0.005903,0.037391,0.008310,0.005696,0.012103,0.005232,0.350340,0.369545,-1.153109,0.096076,0.006216,-0.019392,1.000000,0.000028,0.000061,0.000026,0.999949,0.002966,0.008906,-0.003635,0.336258,1.021758,-0.413543,0.999815,-0.007216,-0.017832,0.007322,0.999956,0.005868,0.017789,-0.005997,0.999824
31098,2,0,-57.0000,9.639804,0.630016,-1.927692,0.006332,0.024749,0.038104,0.006894,0.013376,0.006521,0.349434,0.383402,-1.153432,0.096397,0.006304,-0.019283,1.000000,0.000034,0.000067,0.000033,0.999950,0.002990,0.008832,-0.003612,0.338998,1.013313,-0.410901,0.999818,-0.007170,-0.017685,0.007276,0.999956,0.005916,0.017642,-0.006043,0.999826
31099,2,0,-57.0000,9.572290,0.652585,-1.911637,-0.002088,-0.002066,-0.029592,0.009548,0.010497,0.006674,0.346640,0.377167,-1.152895,0.095722,0.006530,-0.019121,1.000000,0.000048,0.000052,0.000033,0.999951,0.003020,0.008772,-0.003583,0.342515,1.006425,-0.407637,0.999820,-0.007113,-0.017565,0.007219,0.999956,0.005977,0.017521,-0.006103,0.999828
31100,2,0,-57.0000,9.625874,0.609408,-1.921204,0.014052,0.040952,0.021843,0.006316,0.012040,0.003047,0.351663,0.378319,-1.151126,0.096257,0.006096,-0.019218,1.000000,0.000032,0.000060,0.000015,0.999951,0.003027,0.008711,-0.003576,0.343321,0.999396,-0.406851,0.999823,-0.007100,-0.017442,0.007205,0.999956,0.005991,0.017399,-0.006116,0.999830
31101,2,0,-57.0000,9.608766,0.618659,-1.934505,-0.005842,0.036738,0.008313,0.011004,0.006345,0.005538,0.349825,0.379086,-1.149778,0.096087,0.006190,-0.019348,1.000000,0.000055,0.000032,0.000028,0.999951,0.003060,0.008672,-0.003541,0.347226,0.994960,-0.402796,0.999825,-0.007029,-0.017364,0.007135,0.999956,0.006059,0.017321,-0.006182,0.999831
31102,2,0,-57.0000,9.599608,0.629171,-1.914392,0.006037,0.019069,-0.003874,0.015870,0.009732,0.008674,0.354452,0.381952,-1.147933,0.095995,0.006297,-0.019148,1.000000,0.000079,0.000049,0.000043,0.999952,0.003107,0.008612,-0.003486,0.352584,0.988128,-0.396467,0.999827,-0.006919,-0.017245,0.007026,0.999956,0.006153,0.017202,-0.006273,0.999832
31103,2,0,-57.0000,9.609200,0.616642,-1.932992,-0.005791,0.036434,0.008314,0.025251,0.010056,0.005407,0.353921,0.371240,-1.158522,0.096091,0.006171,-0.019334,1.000000,0.000126,0.000050,0.000027,0.999953,0.003147,0.008556,-0.003380,0.357372,0.981674,-0.384254,0.999831,-0.006705,-0.017133,0.006813,0.999957,0.006236,0.017090,-0.006352,0.999834
31104,2,0,-57.0000,9.590693,0.638561,-1.893425,0.017945,0.001224,-0.016061,0.024706,0.008411,0.005572,0.351367,0.372662,-1.155296,0.095906,0.006391,-0.018937,1.000000,0.000124,0.000042,0.000028,0.999953,0.003191,0.008509,-0.003270,0.362482,0.976217,-0.371649,0.999834,-0.006486,-0.017037,0.006594,0.999958,0.006326,0.016996,-0.006437,0.999835
31105,2,0,-57.0000,9.609597,0.614589,-1.931672,-0.005727,0.036116,0.008315,0.027905,0.007173,0.005564,0.347021,0.373394,-1.148990,0.096095,0.006151,-0.019319,1.000000,0.000140,0.000036,0.000028,0.999954,0.003240,0.008466,-0.003152,0.368227,0.971268,-0.358060,0.999837,-0.006248,-0.016951,0.006358,0.999959,0.006426,0.016910,-0.006533,0.999836
31106,2,0,-57.0000,9.585940,0.605904,-1.907398,0.013829,0.034923,-0.020133,0.033542,0.007084,0.002474,0.349737,0.376256,-1.146032,0.095859,0.006063,-0.019076,1.000000,0.000168,0.000035,0.000012,0.999955,0.003281,0.008428,-0.003000,0.373100,0.966962,-0.340604,0.999840,-0.005944,-0.016876,0.006054,0.999960,0.006511,0.016836,-0.006612,0.999836
31107,2,0,-57.0000,9.617832,0.614386,-1.897234,0.026070,0.022303,0.009658,0.038014,0.005412,0.001736,0.349523,0.374340,-1.144748,0.096178,0.006148,-0.018974,1.000000,0.000190,0.000027,0.000009,0.999955,0.003325,0.008400,-0.002829,0.378366,0.963683,-0.320994,0.999843,-0.005602,-0.016819,0.005713,0.999962,0.006603,0.016781,-0.006698,0.999837
31108,2,0,-57.0000,9.591229,0.634888,-1.891945,0.018033,0.000581,-0.016061,0.036999,0.000415,0.000048,0.349241,0.369316,-1.158367,0.095912,0.006352,-0.018918,1.000000,0.000185,0.000002,0.000000,0.999956,0.003369,0.008399,-0.002664,0.383523,0.963507,-0.302017,0.999845,-0.005270,-0.016816,0.005384,0.999963,0.006693,0.016780,-0.006782,0.999836
31109,2,0,-57.0000,9.568858,0.613320,-1.921217,-0.006012,0.030407,-0.033662,0.032527,0.002081,0.000790,0.351798,0.373977,-1.152892,0.095688,0.006137,-0.019212,1.000000,0.000163,0.000010,0.000004,0.999956,0.003409,0.008388,-0.002520,0.388298,0.962223,-0.285512,0.999847,-0.004982,-0.016793,0.005097,0.999964,0.006776,0.016759,-0.006861,0.999836
31110,2,0,-57.0000,9.576777,0.614309,-1.887984,0.025764,0.016744,-0.032321,0.035363,-0.004521,0.000550,0.342422,0.378190,-1.160288,0.095768,0.006147,-0.018877,1.000000,0.000177,-0.000023,0.000003,0.999956,0.003464,0.008409,-0.002358,0.394697,0.964516,-0.266917,0.999847,-0.004658,-0.016833,0.004774,0.999965,0.006888,0.016801,-0.006967,0.999835
31111,2,0,-57.0000,9.603347,0.592762,-1.893758,0.033856,0.038155,-0.006599,0.032723,-0.002742,-0.008905,0.358625,0.372761,-1.149482,0.096034,0.005926,-0.018935,1.000000,0.000164,-0.000014,-0.000045,0.999956,0.003468,0.008438,-0.002206,0.395347,0.967753,-0.249469,0.999848,-0.004353,-0.016890,0.004470,0.999966,0.006899,0.016859,-0.006974,0.999834
31112,2,0,-57.0000,9.568668,0.612734,-1.922351,-0.005954,0.029908,-0.033661,0.027491,0.001307,-0.011240,0.354880,0.373209,-1.147767,0.095687,0.006125,-0.019223,1.000000,0.000137,0.000007,-0.000056,0.999956,0.003450,0.008452,-0.002077,0.393346,0.969301,-0.234706,0.999849,-0.004096,-0.016917,0.004212,0.999968,0.006864,0.016888,-0.006934,0.999833
31113,2,0,-57.0000,9.584478,0.619398,-1.979815,-0.057227,0.044254,-0.006551,0.023171,-0.000441,-0.014539,0.352659,0.374152,-1.157036,0.095845,0.006189,-0.019797,1.000000,0.000116,-0.000002,-0.000073,0.999956,0.003415,0.008480,-0.001966,0.389461,0.972462,-0.221975,0.999848,-0.003874,-0.016972,0.003989,0.999969,0.006796,0.016945,-0.006863,0.999833
31114,2,0,-57.0000,9.604542,0.581653,-1.947202,-0.009662,0.068684,0.004253,0.026262,0.000331,-0.016164,0.355516,0.372756,-1.154602,0.096046,0.005811,-0.019471,1.000000,0.000131,0.000002,-0.000081,0.999956,0.003374,0.008508,-0.001831,0.384946,0.975632,-0.206576,0.999849,-0.003605,-0.017027,0.003720,0.999971,0.006718,0.017002,-0.006780,0.999832
31115,2,0,-57.0000,9.626051,0.530814,-1.967438,-0.005709,0.124128,0.025910,0.033717,0.001442,-0.020147,0.348304,0.375112,-1.151226,0.096261,0.005302,-0.019674,1.000000,0.000169,0.000007,-0.000101,0.999957,0.003321,0.008537,-0.001662,0.378989,0.978862,-0.187271,0.999849,-0.003268,-0.017084,0.003381,0.999972,0.006614,0.017061,-0.006670,0.999832
31116,2,0,-57.0000,9.623856,0.633875,-1.936986,-0.013168,0.017818,0.024580,0.032006,-0.001781,-0.017625,0.354821,0.367669,-1.156457,0.096239,0.006333,-0.019368,1.000000,0.000160,-0.000009,-0.000088,0.999957,0.003283,0.008576,-0.001503,0.374802,0.983366,-0.169039,0.999848,-0.002950,-0.017162,0.003062,0.999974,0.006541,0.017142,-0.006592,0.999831
31117,2,0,-57.0000,9.615059,0.558009,-1.895407,0.049776,0.075258,0.002869,0.044836,0.004660,-0.022279,0.347665,0.371967,-1.151103,0.096151,0.005574,-0.018955,1.000000,0.000224,0.000023,-0.000111,0.999957,0.003226,0.008594,-0.001277,0.368408,0.985256,-0.143147,0.999849,-0.002498,-0.017195,0.002609,0.999976,0.006429,0.017179,-0.006473,0.999831
31118,2,0,-57.0000,9.640952,0.626722,-1.923022,0.006785,0.021509,0.038111,0.046371,-0.001213,-0.025416,0.341864,0.374099,-1.150981,0.096410,0.006259,-0.019228,1.000000,0.000232,-0.000006,-0.000127,0.999957,0.003166,0.008644,-0.001035,0.361849,0.990910,-0.115519,0.999848,-0.002016,-0.017294,0.002125,0.999978,0.006314,0.017281,-0.006350,0.999831
31119,2,0,-57.0000,9.600375,0.541743,-1.891376,0.057514,0.091415,-0.013385,0.052582,0.000025,-0.025024,0.348628,0.367939,-1.147807,0.096004,0.005410,-0.018912,1.000000,0.000263,0.000000,-0.000125,0.999957,0.003112,0.008688,-0.000770,0.355839,0.995815,-0.085147,0.999848,-0.001486,-0.017379,0.001594,0.999979,0.006210,0.017370,-0.006236,0.999830
31120,2,0,-57.0000,9.630505,0.568149,-1.953648,-0.001480,0.089245,0.029985,0.064615,-0.002559,-0.028107,0.354997,0.371841,-1.155497,0.096306,0.005674,-0.019533,1.000000,0.000323,-0.000013,-0.000141,0.999957,0.003060,0.008747,-0.000451,0.350212,1.002517,-0.048577,0.999847,-0.000848,-0.017496,0.000955,0.999981,0.006111,0.017491,-0.006127,0.999828
31121,2,0,-57.0000,9.607955,0.548661,-1.983224,-0.025512,0.119084,0.012392,0.072610,0.000175,-0.032246,0.350662,0.372030,-1.149442,0.096080,0.005478,-0.019830,1.000000,0.000363,0.000001,-0.000161,0.999957,0.002991,0.008802,-0.000080,0.342750,1.008721,-0.006190,0.999845,-0.000108,-0.017605,0.000213,0.999982,0.005981,0.017604,-0.005984,0.999827
31122,2,0,-57.0000,9.591925,0.544682,-1.926151,0.025801,0.104397,-0.014719,0.077514,0.002133,-0.034756,0.357107,0.373160,-1.155405,0.095920,0.005438,-0.019260,1.000000,0.000388,0.000011,-0.000174,0.999957,0.002914,0.008853,0.000320,0.334237,1.014375,0.039685,0.999843,0.000693,-0.017703,-0.000589,0.999983,0.005833,0.017707,-0.005821,0.999826
31123,2,0,-57.0000,9.520328,0.525741,-1.979530,-0.030361,0.142676,-0.075629,0.082682,-0.001348,-0.039667,0.359052,0.369764,-1.156525,0.095204,0.005247,-0.019792,1.000000,0.000413,-0.000007,-0.000198,0.999956,0.002824,0.008928,0.000747,0.324375,1.022858,0.088447,0.999839,0.001543,-0.017851,-0.001443,0.999983,0.005660,0.017860,-0.005634,0.999825
31124,2,0,-57.0000,9.588541,0.578037,-1.945866,-0.001754,0.083514,-0.011991,0.078253,-0.001121,-0.044575,0.347236,0.364193,-1.149031,0.095887,0.005767,-0.019456,1.000000,0.000391,-0.000006,-0.000223,0.999955,0.002707,0.009012,0.001167,0.311485,1.032328,0.136552,0.999835,0.002383,-0.018017,-0.002285,0.999983,0.005436,0.018029,-0.005393,0.999823
31125,2,0,-58.0000,9.669092,0.590759,-1.912422,0.042617,0.062439,0.061116,0.070944,0.005994,-0.052908,0.351855,0.372689,-1.148677,0.096692,0.005889,-0.019125,1.000000,0.000355,0.000030,-0.000265,0.999954,0.002533,0.009076,0.001550,0.291853,1.039568,0.180319,0.999830,0.003147,-0.018143,-0.003055,0.999982,0.005093,0.018159,-0.005037,0.999822
31126,2,0,-57.0000,9.658942,0.531693,-1.817233,0.149141,0.088813,0.028556,0.065861,0.006579,-0.059273,0.355396,0.376210,-1.146872,0.096590,0.005294,-0.018174,1.000000,0.000329,0.000033,-0.000296,0.999954,0.002324,0.009147,0.001914,0.268311,1.047672,0.221787,0.999825,0.003870,-0.018284,-0.003785,0.999982,0.004682,0.018302,-0.004612,0.999822
31127,2,0,-57.0000,9.641839,0.621270,-1.906949,0.034556,0.040527,0.035391,0.060173,0.006087,-0.072741,0.354348,0.371411,-1.153880,0.096420,0.006183,-0.019071,1.000000,0.000301,0.000030,-0.000364,0.999953,0.002047,0.009245,0.002263,0.236977,1.058885,0.261519,0.999819,0.004564,-0.018480,-0.004488,0.999981,0.004135,0.018499,-0.004052,0.999821
31128,2,0,-57.0000,9.595457,0.598741,-1.911647,0.030065,0.069348,-0.010649,0.051777,0.009900,-0.080735,0.348194,0.377310,-1.146481,0.095956,0.005954,-0.019120,1.000000,0.000259,0.000049,-0.000404,0.999952,0.001719,0.009339,0.002579,0.199718,1.069690,0.297434,0.999812,0.005190,-0.018669,-0.005126,0.999981,0.003485,0.018686,-0.003389,0.999820
31129,2,0,-57.0000,9.618520,0.540074,-1.983811,-0.009541,0.155814,0.021881,0.049549,0.003868,-0.087302,0.352268,0.373748,-1.149999,0.096187,0.005364,-0.019839,1.000000,0.000248,0.000019,-0.000437,0.999950,0.001368,0.009473,0.002889,0.159924,1.085072,0.332580,0.999804,0.005804,-0.018937,-0.005752,0.999980,0.002791,0.018953,-0.002681,0.999817
31130,2,0,-57.0000,9.570188,0.460338,-2.109731,-0.105339,0.280746,-0.006493,0.068346,-0.008375,-0.094727,0.356004,0.372783,-1.147983,0.095705,0.004565,-0.021092,1.000000,0.000342,-0.000042,-0.000474,0.999947,0.001023,0.009676,0.003282,0.120856,1.108357,0.377316,0.999791,0.006584,-0.019343,-0.006545,0.999976,0.002109,0.019357,-0.001982,0.999811
31131,2,0,-57.0000,9.557572,0.271622,-2.061667,0.004628,0.447316,-0.041746,0.116508,-0.041460,-0.097570,0.358474,0.364955,-1.139011,0.095581,0.002682,-0.020595,1.000000,0.000583,-0.000207,-0.000488,0.999942,0.000768,0.010039,0.003914,0.092564,1.150105,0.449501,0.999768,0.007844,-0.020072,-0.007813,0.999968,0.001615,0.020084,-0.001458,0.999797
31132,2,0,-57.0000,9.459133,-0.031365,-2.112189,0.046046,0.754431,-0.150067,0.159854,-0.056729,-0.118495,0.358062,0.365355,-1.139180,0.094597,-0.000353,-0.021095,0.999999,0.000799,-0.000284,-0.000592,0.999933,0.000488,0.010512,0.004783,0.061700,1.204280,0.548732,0.999733,0.009575,-0.021017,-0.009554,0.999954,0.001077,0.021026,-0.000876,0.999779
31133,2,0,-57.0000,9.557480,-0.184738,-2.095142,0.141391,0.898077,-0.068836,0.233748,-0.067977,-0.129962,0.364669,0.366857,-1.146418,0.095581,-0.001885,-0.020921,0.999999,0.001169,-0.000340,-0.000650,0.999921,0.000246,0.011056,0.006010,0.035835,1.266761,0.689159,0.999683,0.012025,-0.022107,-0.012014,0.999928,0.000625,0.022113,-0.000359,0.999755
31134,2,0,-57.0000,9.588396,-0.239127,-2.014393,0.248334,0.929462,-0.059395,0.277502,-0.049899,-0.187196,0.368510,0.368265,-1.147157,0.095887,-0.002453,-0.020123,0.999999,0.001388,-0.000249,-0.000936,0.999904,-0.000243,0.011615,0.007527,-0.017881,1.331129,0.862337,0.999617,0.015046,-0.023230,-0.015057,0.999887,-0.000312,0.023223,0.000662,0.999730
31135,2,0,-57.0000,9.556776,-0.381733,-2.122611,0.196014,1.112995,-0.080988,0.325153,-0.025495,-0.255217,0.363255,0.368140,-1.146644,0.095566,-0.003905,-0.021220,0.999998,0.001626,-0.000127,-0.001276,0.999882,-0.001042,0.012175,0.009334,-0.106360,1.396204,1.068403,0.999529,0.018641,-0.024366,-0.018691,0.999824,-0.001856,0.024327,0.002310,0.999701
31136,2,0,-57.0000,9.472130,-0.329565,-1.998312,0.282429,1.040619,-0.186659,0.379395,-0.007847,-0.319787,0.374318,0.378017,-1.137584,0.094717,-0.003409,-0.019986,0.999997,0.001897,-0.000039,-0.001599,0.999850,-0.002110,0.012762,0.011485,-0.224996,1.465183,1.313340,0.999410,0.022913,-0.025569,-0.023020,0.999727,-0.003926,0.025473,0.004512,0.999665
31137,2,0,-57.0000,9.486758,-0.210012,-1.954432,0.294850,0.938338,-0.174482,0.411963,0.012955,-0.396085,0.376951,0.378909,-1.140825,0.094862,-0.002248,-0.019555,0.999996,0.002060,0.000065,-0.001980,0.999808,-0.003534,0.013382,0.013864,-0.383718,1.539012,1.583707,0.999257,0.027627,-0.026858,-0.027817,0.999591,-0.006695,0.026662,0.007437,0.999617
31138,2,0,-57.0000,9.542987,-0.160964,-2.090212,0.172823,0.968262,-0.091782,0.453454,0.040582,-0.467444,0.375743,0.378393,-1.143328,0.095422,-0.001785,-0.020925,0.999995,0.002267,0.000203,-0.002337,0.999751,-0.005290,0.013995,0.016527,-0.579808,1.613568,1.886032,0.999062,0.032898,-0.028158,-0.033195,0.999398,-0.010115,0.027809,0.011041,0.999552
31139,2,0,-57.0000,9.501601,0.144318,-2.117963,0.050845,0.724243,-0.103940,0.471252,0.055948,-0.526530,0.386919,0.377128,-1.136527,0.095014,0.001243,-0.021203,0.999994,0.002356,0.000280,-0.002633,0.999679,-0.007327,0.014634,0.019335,-0.807246,1.692829,2.204104,0.998824,0.038443,-0.029541,-0.038871,0.999145,-0.014082,0.028975,0.015214,0.999464
31140,2,0,-57.0000,9.630840,0.811654,-2.064134,-0.064115,0.117888,0.069333,0.456139,0.059868,-0.553793,0.385653,0.382838,-1.132306,0.096324,0.007897,-0.020652,0.999994,0.002281,0.000299,-0.002769,0.999593,-0.009508,0.015299,0.022105,-1.050962,1.776741,2.517358,0.998555,0.043901,-0.031005,-0.044483,0.998842,-0.018333,0.030164,0.019686,0.999351
31141,2,0,-57.0000,9.618123,1.331562,-2.020835,-0.169121,-0.346867,0.097713,0.394623,0.067116,-0.554271,0.392949,0.381425,-1.132964,0.096211,0.013089,-0.020215,0.999994,0.001973,0.000336,-0.002771,0.999502,-0.011769,0.015925,0.024567,-1.303889,1.857420,2.794896,0.998286,0.048735,-0.032412,-0.049485,0.998516,-0.022743,0.031256,0.024308,0.999216
31142,2,0,-57.0000,9.573647,1.752732,-1.962882,-0.235182,-0.724079,0.086804,0.347733,0.074883,-0.524452,0.394257,0.380254,-1.127995,0.095775,0.017310,-0.019634,0.999995,0.001739,0.000374,-0.002622,0.999408,-0.013949,0.016463,0.026788,-1.548035,1.928616,3.044758,0.998023,0.053086,-0.033654,-0.054005,0.998176,-0.027000,0.032160,0.028764,0.999069
31143,2,0,-57.0000,9.536329,2.265469,-1.866029,-0.288953,-1.203358,0.088034,0.311406,0.086900,-0.467556,0.397236,0.390401,-1.120115,0.095408,0.022461,-0.018667,0.999996,0.001557,0.000435,-0.002338,0.999317,-0.015924,0.016847,0.028770,-1.769336,1.982074,3.267563,0.997777,0.056965,-0.034587,-0.058038,0.997837,-0.030857,0.032754,0.032796,0.998925
31144,2,0,-57.0000,9.530210,2.606609,-1.740630,-0.259905,-1.531481,0.098721,0.252799,0.088651,-0.394079,0.395249,0.388481,-1.116998,0.095346,0.025900,-0.017416,0.999997,0.001264,0.000443,-0.001970,0.999236,-0.017619,0.017098,0.030416,-1.959482,2.019665,3.452462,0.997565,0.060183,-0.035242,-0.061388,0.997529,-0.034172,0.033099,0.036252,0.998794
31145,2,0,-57.0000,9.548465,2.680586,-1.625425,-0.160584,-1.606206,0.106737,0.193271,0.070904,-0.315669,0.392469,0.385363,-1.123921,0.095521,0.026671,-0.016262,0.999998,0.000966,0.000355,-0.001578,0.999168,-0.018987,0.017298,0.031671,-2.112954,2.049873,3.593218,0.997395,0.062632,-0.035769,-0.063946,0.997273,-0.036846,0.033364,0.039037,0.998681
31146,2,0,-57.0000,9.623048,2.510421,-1.582694,-0.049814,-1.429657,0.155449,0.144570,0.051355,-0.239617,0.400109,0.395721,-1.118430,0.096256,0.025000,-0.015834,0.999999,0.000723,0.000257,-0.001198,0.999115,-0.020017,0.017461,0.032620,-2.228521,2.074357,3.699645,0.997262,0.064484,-0.036196,-0.065882,0.997070,-0.038860,0.033585,0.041138,0.998589
31147,2,0,-57.0000,9.677661,2.068843,-1.572883,0.099189,-0.991225,0.158211,0.141251,0.035781,-0.176600,0.404333,0.393818,-1.127198,0.096792,0.020614,-0.015732,0.999999,0.000706,0.000179,-0.000883,0.999069,-0.020738,0.017595,0.033476,-2.308896,2.094408,3.795941,0.997140,0.066159,-0.036546,-0.067619,0.996899,-0.040260,0.033769,0.042616,0.998521
31148,2,0,-57.0000,9.670900,1.807369,-1.590944,0.157437,-0.725599,0.125759,0.150476,0.012298,-0.118683,0.406575,0.397537,-1.125640,0.096719,0.018028,-0.015902,1.000000,0.000752,0.000061,-0.000593,0.999029,-0.021143,0.017751,0.034328,-2.352882,2.115751,3.892484,0.997013,0.067838,-0.036918,-0.069339,0.996749,-0.041026,0.034015,0.043463,0.998476
31149,2,0,-57.0000,9.704832,1.600886,-1.627002,0.192499,-0.509465,0.142066,0.174950,-0.001129,-0.093847,0.396815,0.391773,-1.125006,0.097056,0.015978,-0.016255,1.000000,0.000875,-0.000006,-0.000469,0.998989,-0.021388,0.017931,0.035254,-2.378322,2.139600,3.997785,0.996871,0.069669,-0.037334,-0.071203,0.996599,-0.041469,0.034318,0.043997,0.998442
31150,2,0,-57.0000,9.615820,1.440193,-1.571117,0.274115,-0.373580,0.025598,0.182864,-0.019238,-0.073112,0.402128,0.395268,-1.118072,0.096165,0.014381,-0.015689,1.000000,0.000914,-0.000096,-0.000366,0.998948,-0.021498,0.018166,0.036203,-2.387975,2.169155,4.105844,0.996719,0.071548,-0.037850,-0.073110,0.996454,-0.041636,0.034737,0.044267,0.998416
31151,2,0,-57.0000,9.587025,1.313055,-1.570161,0.308941,-0.252114,-0.017711,0.165325,-0.033278,-0.058804,0.405115,0.398820,-1.126105,0.095877,0.013115,-0.015675,1.000000,0.000827,-0.000166,-0.000294,0.998912,-0.021541,0.018441,0.037034,-2.389963,2.202863,4.200528,0.996577,0.073193,-0.038438,-0.074782,0.996329,-0.041670,0.035247,0.044402,0.998392
31152,2,0,-57.0000,9.470390,1.362852,-1.574262,0.272460,-0.304433,-0.124704,0.139961,-0.051532,-0.049563,0.409584,0.395285,-1.123485,0.094711,0.013616,-0.015709,1.000000,0.000700,-0.000258,-0.000248,0.998879,-0.021539,0.018785,0.037730,-2.386687,2.243902,4.279611,0.996447,0.074567,-0.039153,-0.076185,0.996225,-0.041612,0.035903,0.044447,0.998366
31153,2,0,-57.0000,9.476074,1.321398,-1.613346,0.256532,-0.253020,-0.116548,0.111917,-0.075817,-0.048129,0.407322,0.394823,-1.123298,0.094770,0.013200,-0.016090,1.000000,0.000560,-0.000379,-0.000241,0.998850,-0.021522,0.019238,0.038271,-2.381661,2.296925,4.340704,0.996330,0.075626,-0.040078,-0.077282,0.996144,-0.041522,0.036783,0.044467,0.998333
31154,2,0,-57.0000,9.368881,1.117323,-1.641375,0.270575,-0.056025,-0.239700,0.092783,-0.094266,-0.047579,0.406481,0.386704,-1.117169,0.093699,0.011159,-0.016364,1.000000,0.000464,-0.000471,-0.000238,0.998823,-0.021494,0.019775,0.038720,-2.375039,2.359359,4.391038,0.996220,0.076498,-0.041167,-0.078198,0.996078,-0.041405,0.037838,0.044468,0.998294
31155,2,0,-57.0000,9.391422,1.020211,-1.733526,0.226903,0.064494,-0.211172,0.075659,-0.122345,-0.053745,0.417789,0.387618,-1.130533,0.093928,0.010183,-0.017274,1.000000,0.000378,-0.000612,-0.000269,0.998797,-0.021470,0.020451,0.039067,-2.368569,2.437557,4.429478,0.996111,0.077162,-0.042531,-0.078918,0.996026,-0.041290,0.039176,0.044486,0.998242
31156,2,0,-57.0000,9.271357,0.889022,-1.753965,0.229255,0.189350,-0.339758,0.057023,-0.140678,-0.066091,0.416914,0.396930,-1.128624,0.092729,0.008865,-0.017472,1.000000,0.000285,-0.000703,-0.000330,0.998769,-0.021491,0.021232,0.039345,-2.366920,2.527734,4.459583,0.996002,0.077680,-0.044103,-0.079505,0.995980,-0.041259,0.040721,0.044600,0.998175
31157,2,0,-57.0000,9.293665,0.885464,-1.844853,0.166182,0.221266,-0.300424,0.042114,-0.165880,-0.076908,0.410865,0.385456,-1.119505,0.092955,0.008823,-0.018370,1.000000,0.000211,-0.000829,-0.000385,0.998741,-0.021544,0.022147,0.039530,-2.368487,2.633163,4.478702,0.995894,0.078006,-0.045941,-0.079915,0.995946,-0.041282,0.042535,0.044784,0.998091
31158,2,0,-57.0000,9.376926,0.865404,-1.860440,0.194608,0.251650,-0.219166,0.047576,-0.187642,-0.089292,0.424866,0.396746,-1.126922,0.093791,0.008617,-0.018514,0.999999,0.000238,-0.000938,-0.000446,0.998707,-0.021613,0.023185,0.039751,-2.371253,2.752845,4.501633,0.995765,0.078397,-0.048028,-0.080401,0.995905,-0.041327,0.044591,0.045013,0.997991
31159,2,0,-57.0000,9.355804,1.063426,-1.884634,0.135876,0.070273,-0.211107,0.056383,-0.205148,-0.105138,0.418087,0.396159,-1.122386,0.093583,0.010590,-0.018747,0.999999,0.000282,-0.001026,-0.000526,0.998667,-0.021722,0.024332,0.040014,-2.377958,2.885373,4.529046,0.995614,0.078864,-0.050338,-0.080979,0.995854,-0.041439,0.046861,0.045333,0.997872
31160,2,0,-57.0000,9.417831,1.027963,-1.807101,0.255039,0.089139,-0.171898,0.059786,-0.217239,-0.114352,0.421982,0.395849,-1.113936,0.094204,0.010231,-0.017966,0.999999,0.000299,-0.001086,-0.000572,0.998622,-0.021851,0.025552,0.040303,-2.386539,3.026364,4.559141,0.995446,0.079377,-0.052795,-0.081611,0.995796,-0.041583,0.049273,0.045702,0.997739
31161,2,0,-57.0000,9.369048,1.097257,-1.827034,0.231141,0.029393,-0.207129,0.041801,-0.236066,-0.125025,0.427286,0.390973,-1.111227,0.093719,0.010918,-0.018157,0.999999,0.000209,-0.001180,-0.000625,0.998575,-0.022021,0.026876,0.040499,-2.399543,3.179155,4.578297,0.995275,0.079699,-0.055458,-0.082066,0.995750,-0.041803,0.051891,0.046157,0.997586
31162,2,0,-57.0000,9.347283,1.324220,-1.967226,0.061750,-0.144434,-0.170567,-0.001645,-0.251074,-0.138354,0.430610,0.395126,-1.120071,0.093507,0.013177,-0.019555,0.999999,-0.000008,-0.001255,-0.000692,0.998531,-0.022277,0.028285,0.040492,-2.422611,3.341733,4.573662,0.995121,0.079605,-0.058291,-0.082126,0.995728,-0.042198,0.054683,0.046779,0.997407
31163,2,0,-57.0000,9.527186,1.371006,-1.879940,0.202098,-0.196107,-0.009538,-0.045003,-0.259022,-0.146069,0.435720,0.389021,-1.117325,0.095306,0.013636,-0.018679,0.999999,-0.000225,-0.001295,-0.000730,0.998490,-0.022604,0.029738,0.040274,-2.454382,3.509034,4.544383,0.994987,0.079083,-0.061206,-0.081771,0.995734,-0.042744,0.057565,0.047534,0.997210
31164,262146,0,-57.0000,9.637334,1.208606,-2.140469,0.056196,0.048120,0.132914,-0.068599,-0.256064,-0.151381,0.434873,0.390223,-1.126858,0.096410,0.012006,-0.021285,0.999999,-0.000343,-0.001280,-0.000757,0.998450,-0.022983,0.031181,0.039957,-2.492702,3.675246,4.503394,0.994862,0.078357,-0.064101,-0.081223,0.995750,-0.043403,0.060428,0.048386,0.996999
31165,2,0,-57.0000,9.606483,1.011719,-2.325001,-0.043697,0.296816,0.118256,-0.090752,-0.257163,-0.164775,0.445709,0.402702,-1.122727,0.096103,0.010028,-0.023131,0.999999,-0.000454,-0.001286,-0.000824,0.998409,-0.023449,0.032647,0.039535,-2.541408,3.844205,4.449953,0.994742,0.077414,-0.067044,-0.080476,0.995774,-0.044242,0.063335,0.049404,0.996769
31166,2,0,-57.0000,9.680760,1.148068,-2.476503,-0.172992,0.225619,0.241532,-0.097291,-0.256746,-0.173790,0.443518,0.396121,-1.112858,0.096849,0.011385,-0.024646,0.999999,-0.000486,-0.001284,-0.000869,0.998365,-0.023962,0.034123,0.039098,-2.595727,4.014454,4.394365,0.994614,0.076433,-0.070008,-0.079704,0.995794,-0.045177,0.066261,0.050514,0.996523
31167,2,0,-57.0000,9.858263,1.452072,-2.551085,-0.249248,-0.019220,0.470276,-0.100581,-0.222930,-0.182186,0.438961,0.397570,-1.115959,0.098624,0.014418,-0.025408,0.999999,-0.000503,-0.001115,-0.000911,0.998321,-0.024571,0.035453,0.038663,-2.661863,4.168315,4.338783,0.994497,0.075454,-0.072687,-0.078938,0.995803,-0.046319,0.068887,0.051802,0.996279
31168,2,0,-57.0000,9.752758,1.641464,-2.316893,-0.083453,-0.259838,0.341334,-0.130448,-0.190668,-0.178044,0.444663,0.402527,-1.119543,0.097564,0.016313,-0.023087,0.999999,-0.000652,-0.000953,-0.000890,0.998284,-0.025241,0.036617,0.038096,-2.736399,4.303025,4.267990,0.994416,0.074212,-0.075031,-0.077909,0.995823,-0.047606,0.071185,0.053186,0.996044
31169,2,0,-57.0000,9.715362,1.688745,-2.111957,0.106198,-0.351207,0.265299,-0.177203,-0.172446,-0.172202,0.456887,0.403576,-1.107723,0.097186,0.016785,-0.021051,0.999999,-0.000886,-0.000862,-0.000861,0.998256,-0.025967,0.037680,0.037303,-2.818890,4.425629,4.171115,0.994378,0.072519,-0.077165,-0.076432,0.995868,-0.049032,0.073290,0.054655,0.995812
31170,2,0,-57.0000,9.571086,1.653856,-2.100075,0.108651,-0.315893,0.119059,-0.192824,-0.176459,-0.158127,0.451487,0.405075,-1.095994,0.095742,0.016443,-0.020932,0.999999,-0.000964,-0.000882,-0.000791,0.998230,-0.026638,0.038736,0.036424,-2.895723,4.546907,4.064407,0.994346,0.070655,-0.079275,-0.074782,0.995927,-0.050359,0.075394,0.056003,0.995580
31171,2,0,-57.0000,9.507322,1.570776,-2.175278,0.064235,-0.205394,0.063647,-0.189185,-0.191024,-0.141974,0.455658,0.400884,-1.100525,0.095105,0.015620,-0.021677,0.999999,-0.000946,-0.000955,-0.000710,0.998204,-0.027209,0.039836,0.035532,-2.961229,4.672640,3.956444,0.994301,0.068769,-0.081463,-0.073104,0.995994,-0.051488,0.077595,0.057150,0.995346
