// General information: 
//  MT Manager version: 2020.3.0 
//  XDA version: 2020.3.0 build 5439 rev 106958 built on 2020-11-10
// Device information: 
//  DeviceId: 00B46A02
//  ProductCode: MTW2-3A7G6
//  Firmware Version: 4.4.0
//  Hardware Version: 2.0.0
// Device settings: 
//  Filter Profile: human(46.1)
//  Option Flags: Orientation Smoother Disabled, Position/Velocity Smoother Disabled, Continuous Zero Rotation Update Disabled, AHS Disabled, ICC Disabled
// Coordinate system: ENU
PacketCounter,StatusWord,ClippingFlags,RSSI,Acc_X,Acc_Y,Acc_Z,FreeAcc_E,FreeAcc_N,FreeAcc_U,Gyr_X,Gyr_Y,Gyr_Z,Mag_X,Mag_Y,Mag_Z,VelInc_X,VelInc_Y,VelInc_Z,OriInc_q0,OriInc_q1,OriInc_q2,OriInc_q3,Quat_q0,Quat_q1,Quat_q2,Quat_q3,Roll,Pitch,Yaw,Mat[1][1],Mat[2][1],Mat[3][1],Mat[1][2],Mat[2][2],Mat[3][2],Mat[1][3],Mat[2][3],Mat[3][3]
03987,2,0,-64.0000,9.321859,-1.633317,-2.668205,-0.015178,0.070256,0.019857,-0.005375,-0.002142,-0.002629,0.077214,-0.475446,-1.009882,0.093219,-0.016335,-0.026681,1.000000,-0.000027,-0.000011,-0.000013,-0.999687,0.006802,-0.003625,-0.023805,-0.769384,0.433874,2.725250,0.998840,0.047545,-0.007572,-0.047644,0.998774,-0.013427,0.006925,0.013773,0.999881
03988,2,0,-64.0000,9.331152,-1.651303,-2.641045,-0.000801,0.101009,0.024086,-0.008325,-0.006606,-0.002079,0.075780,-0.477034,-1.019429,0.093312,-0.016515,-0.026407,1.000000,-0.000042,-0.000033,-0.000010,-0.999688,0.006819,-0.003654,-0.023761,-0.771289,0.437123,2.720153,0.998844,0.047456,-0.007629,-0.047556,0.998778,-0.013461,0.006981,0.013808,0.999880
03989,2,0,-65.0000,9.325076,-1.591492,-2.643251,0.029055,0.050959,0.009392,-0.008624,-0.004816,-0.000085,0.077376,-0.482743,-1.017895,0.093251,-0.015916,-0.026430,1.000000,-0.000043,-0.000024,-0.000000,-0.999689,0.006833,-0.003681,-0.023710,-0.772762,0.440299,2.714389,0.998849,0.047356,-0.007685,-0.047457,0.998782,-0.013486,0.007037,0.013836,0.999880
03990,2,0,-63.0000,9.311351,-1.622689,-2.638389,0.011812,0.078858,0.000015,-0.004366,-0.003552,0.001986,0.075722,-0.482173,-1.006828,0.093114,-0.016227,-0.026382,1.000000,-0.000022,-0.000018,0.000010,-0.999689,0.006819,-0.003708,-0.023681,-0.771182,0.443253,2.711038,0.998851,0.047297,-0.007736,-0.047399,0.998785,-0.013459,0.007090,0.013810,0.999879
03991,2,0,-64.0000,9.309507,-1.642912,-2.652113,-0.009967,0.087912,0.005253,-0.001543,-0.009375,-0.007265,0.077791,-0.483852,-1.009557,0.093096,-0.016433,-0.026517,1.000000,-0.000008,-0.000047,-0.000036,-0.999689,0.006862,-0.003735,-0.023678,-0.775990,0.446486,2.710642,0.998851,0.047291,-0.007793,-0.047393,0.998785,-0.013543,0.007143,0.013897,0.999878
03992,2,0,-64.0000,9.312749,-1.601586,-2.626784,0.034068,0.068826,-0.005218,-0.001640,-0.007663,0.003171,0.082850,-0.482524,-1.021219,0.093129,-0.016015,-0.026264,1.000000,-0.000008,-0.000038,0.000016,-0.999689,0.006848,-0.003781,-0.023669,-0.774328,0.451771,2.709505,0.998851,0.047271,-0.007885,-0.047374,0.998786,-0.013514,0.007236,0.013872,0.999878
03993,2,0,-64.0000,9.309144,-1.642512,-2.653633,-0.009663,0.087190,0.005260,-0.005284,-0.006180,-0.004788,0.076858,-0.482487,-1.010537,0.093092,-0.016428,-0.026533,1.000000,-0.000026,-0.000031,-0.000024,-0.999690,0.006879,-0.003802,-0.023642,-0.777747,0.454190,2.706406,0.998853,0.047217,-0.007927,-0.047321,0.998787,-0.013573,0.007277,0.013933,0.999876
03994,2,0,-63.0000,9.343873,-1.618612,-2.650368,0.017515,0.070567,0.033481,-0.002041,-0.005834,0.000944,0.086290,-0.476043,-1.014123,0.093440,-0.016186,-0.026501,1.000000,-0.000010,-0.000029,0.000005,-0.999690,0.006870,-0.003836,-0.023630,-0.776705,0.458030,2.705023,0.998854,0.047193,-0.007994,-0.047298,0.998789,-0.013555,0.007345,0.013918,0.999876
03995,2,0,-64.0000,9.308839,-1.642181,-2.654910,-0.009339,0.086479,0.005267,-0.001741,-0.007624,-0.001051,0.072570,-0.480693,-1.018126,0.093089,-0.016423,-0.026545,1.000000,-0.000009,-0.000038,-0.000005,-0.999690,0.006884,-0.003873,-0.023616,-0.778191,0.462320,2.703407,0.998855,0.047164,-0.008069,-0.047271,0.998790,-0.013581,0.007419,0.013947,0.999875
03996,2,0,-64.0000,9.308674,-1.642063,-2.655560,-0.009184,0.086059,0.005270,0.004441,-0.006813,-0.002247,0.082240,-0.480302,-1.013831,0.093087,-0.016421,-0.026553,1.000000,0.000022,-0.000034,-0.000011,-0.999689,0.006883,-0.003903,-0.023632,-0.777913,0.465734,2.705219,0.998853,0.047196,-0.008129,-0.047303,0.998788,-0.013576,0.007478,0.013945,0.999875
03997,2,0,-64.0000,9.340896,-1.647484,-2.606160,0.036830,0.119816,0.023109,0.001908,-0.006779,-0.001370,0.074131,-0.473308,-1.024284,0.093410,-0.016475,-0.026059,1.000000,0.000010,-0.000034,-0.000007,-0.999689,0.006890,-0.003936,-0.023635,-0.778634,0.469544,2.705565,0.998852,0.047202,-0.008195,-0.047310,0.998788,-0.013589,0.007544,0.013961,0.999874
03998,2,0,-64.0000,9.308386,-1.641680,-2.656807,-0.008861,0.085402,0.005276,0.006664,-0.009055,-0.007510,0.079965,-0.481856,-1.020279,0.093084,-0.016419,-0.026564,1.000000,0.000033,-0.000045,-0.000038,-0.999688,0.006912,-0.003960,-0.023669,-0.781130,0.472412,2.709395,0.998848,0.047269,-0.008245,-0.047378,0.998784,-0.013632,0.007591,0.014007,0.999873
03999,2,0,-64.0000,9.306542,-1.661914,-2.670507,-0.030637,0.094458,0.010521,0.006974,-0.006846,-0.003126,0.071885,-0.478464,-1.021241,0.093066,-0.016620,-0.026702,1.000000,0.000035,-0.000034,-0.000016,-0.999687,0.006918,-0.003989,-0.023699,-0.781753,0.475753,2.712776,0.998845,0.047328,-0.008303,-0.047438,0.998781,-0.013643,0.007648,0.014021,0.999872
04000,2,0,-64.0000,9.293659,-1.684207,-2.724737,-0.088649,0.081494,0.016775,0.009003,-0.005011,-0.010451,0.082487,-0.474380,-1.019560,0.092936,-0.016846,-0.027246,1.000000,0.000045,-0.000025,-0.000052,-0.999686,0.006937,-0.003987,-0.023753,-0.783876,0.475646,2.719004,0.998840,0.047436,-0.008301,-0.047547,0.998775,-0.013680,0.007642,0.014059,0.999872
04001,2,0,-64.0000,9.285240,-1.653104,-2.680581,-0.039994,0.081631,-0.008317,0.008795,-0.007259,-0.010616,0.080462,-0.479519,-1.012995,0.092852,-0.016535,-0.026803,1.000000,0.000044,-0.000036,-0.000053,-0.999684,0.006971,-0.003997,-0.023802,-0.787717,0.476904,2.724565,0.998835,0.047533,-0.008323,-0.047645,0.998770,-0.013747,0.007660,0.014128,0.999871
04002,2,0,-64.0000,9.309952,-1.618859,-2.645671,0.013736,0.074740,0.000044,0.010418,-0.005921,-0.011890,0.081689,-0.478960,-1.006205,0.093099,-0.016193,-0.026455,1.000000,0.000052,-0.000030,-0.000059,-0.999683,0.006996,-0.003998,-0.023854,-0.790529,0.477081,2.730580,0.998830,0.047638,-0.008327,-0.047750,0.998764,-0.013796,0.007659,0.014178,0.999870
04003,2,0,-64.0000,9.349069,-1.674464,-2.653792,-0.010671,0.117410,0.048227,0.017301,-0.008726,-0.012860,0.079530,-0.482571,-1.016542,0.093491,-0.016748,-0.026535,1.000000,0.000087,-0.000044,-0.000064,-0.999680,0.007029,-0.004008,-0.023948,-0.794278,0.478427,2.741251,0.998821,0.047824,-0.008350,-0.047937,0.998754,-0.013862,0.007677,0.014246,0.999869
04004,2,0,-64.0000,9.330479,-1.633514,-2.578246,0.064498,0.127049,0.003282,0.017301,-0.008725,-0.012862,0.082446,-0.482409,-1.025966,0.093305,-0.016339,-0.025780,1.000000,0.000087,-0.000044,-0.000064,-0.999678,0.007053,-0.004017,-0.024045,-0.796883,0.479633,2.752330,0.998811,0.048017,-0.008371,-0.048130,0.998744,-0.013907,0.007693,0.014294,0.999868
04005,2,0,-63.0000,9.307429,-1.645608,-2.601287,0.033065,0.123959,-0.010315,0.020835,-0.014163,-0.015509,0.073693,-0.481269,-1.020546,0.093075,-0.016461,-0.026008,1.000000,0.000104,-0.000071,-0.000078,-0.999675,0.007105,-0.004043,-0.024163,-0.802792,0.482827,2.765816,0.998800,0.048252,-0.008427,-0.048367,0.998731,-0.014010,0.007740,0.014401,0.999866
04006,2,0,-63.0000,9.340456,-1.641390,-2.611575,0.038284,0.116649,0.023142,0.023056,-0.016403,-0.020779,0.076953,-0.482554,-1.021609,0.093405,-0.016421,-0.026110,1.000000,0.000115,-0.000082,-0.000104,-0.999671,0.007172,-0.004062,-0.024310,-0.810316,0.485255,2.782603,0.998785,0.048545,-0.008469,-0.048661,0.998715,-0.014142,0.007772,0.014537,0.999864
04007,2,0,-63.0000,9.292632,-1.686777,-2.670324,-0.046707,0.120046,0.001194,0.025186,-0.016929,-0.015609,0.083373,-0.475244,-1.013943,0.092927,-0.016872,-0.026697,1.000000,0.000126,-0.000085,-0.000078,-0.999667,0.007226,-0.004099,-0.024451,-0.816285,0.489793,2.798719,0.998771,0.048826,-0.008548,-0.048944,0.998700,-0.014246,0.007842,0.014647,0.999862
04008,2,0,-64.0000,9.308788,-1.621663,-2.591623,0.055489,0.113519,-0.015551,0.024977,-0.016850,-0.024060,0.076442,-0.469369,-1.026834,0.093088,-0.016225,-0.025910,1.000000,0.000125,-0.000084,-0.000120,-0.999662,0.007304,-0.004111,-0.024603,-0.825124,0.491577,2.816166,0.998756,0.049130,-0.008580,-0.049250,0.998683,-0.014400,0.007861,0.014805,0.999860
04009,2,0,-63.0000,9.327216,-1.660559,-2.668971,-0.019340,0.103169,0.029406,0.028317,-0.020532,-0.020493,0.084054,-0.474603,-1.018016,0.093273,-0.016611,-0.026682,1.000000,0.000142,-0.000103,-0.000102,-0.999657,0.007381,-0.004150,-0.024769,-0.833811,0.496393,2.835058,0.998739,0.049459,-0.008664,-0.049582,0.998664,-0.014552,0.007932,0.014963,0.999857
04010,2,0,-63.0000,9.334100,-1.840140,-2.705869,-0.144303,0.230343,0.074648,0.054455,-0.018165,-0.026771,0.084988,-0.476602,-1.021145,0.093341,-0.018407,-0.027055,1.000000,0.000272,-0.000091,-0.000134,-0.999650,0.007430,-0.004164,-0.025052,-0.839239,0.498317,2.867557,0.998710,0.050026,-0.008697,-0.050149,0.998634,-0.014646,0.007953,0.015064,0.999855
04011,2,0,-63.0000,9.354862,-1.855042,-2.637788,-0.093685,0.283098,0.077895,0.082512,-0.016237,-0.036345,0.078021,-0.469976,-1.010145,0.093547,-0.018557,-0.026378,1.000000,0.000413,-0.000081,-0.000182,-0.999638,0.007474,-0.004145,-0.025493,-0.844047,0.496634,2.918032,0.998666,0.050905,-0.008668,-0.051029,0.998589,-0.014730,0.007906,0.015153,0.999854
04012,2,0,-63.0000,9.353645,-1.602858,-2.622741,0.056708,0.086325,0.032512,0.083515,-0.021623,-0.038143,0.075220,-0.484493,-1.011287,0.093536,-0.016035,-0.026224,1.000000,0.000418,-0.000108,-0.000191,-0.999627,0.007529,-0.004144,-0.025934,-0.850216,0.497046,2.968559,0.998621,0.051786,-0.008675,-0.051911,0.998541,-0.014838,0.007894,0.015268,0.999852
04013,2,0,-63.0000,9.303295,-1.547533,-2.656549,0.045251,0.021307,-0.014682,0.072682,-0.017873,-0.034867,0.066901,-0.472843,-1.013711,0.093033,-0.015482,-0.026563,1.000000,0.000363,-0.000089,-0.000174,-0.999616,0.007587,-0.004135,-0.026327,-0.856619,0.496539,3.013596,0.998580,0.052571,-0.008666,-0.052696,0.998499,-0.014950,0.007867,0.015385,0.999851
04014,2,0,-63.0000,9.331466,-1.604665,-2.705253,-0.015395,0.041947,0.034526,0.062041,-0.015889,-0.037802,0.079849,-0.477267,-1.023323,0.093314,-0.016056,-0.027050,1.000000,0.000310,-0.000079,-0.000189,-0.999606,0.007658,-0.004105,-0.026679,-0.864708,0.493655,3.053896,0.998543,0.053273,-0.008616,-0.053399,0.998459,-0.015091,0.007799,0.015529,0.999849
04015,2,0,-63.0000,9.321501,-1.592895,-2.674341,0.011309,0.051395,0.014673,0.060420,-0.017215,-0.036542,0.077105,-0.482554,-1.021144,0.093214,-0.015938,-0.026740,1.000000,0.000302,-0.000086,-0.000183,-0.999597,0.007739,-0.004088,-0.027015,-0.873921,0.492227,3.092455,0.998507,0.053945,-0.008591,-0.054072,0.998421,-0.015252,0.007755,0.015693,0.999847
04016,2,0,-63.0000,9.324904,-1.549915,-2.649278,0.055364,0.032315,0.004168,0.054648,-0.019853,-0.033107,0.080842,-0.476377,-1.007213,0.093249,-0.015507,-0.026488,1.000000,0.000273,-0.000099,-0.000166,-0.999588,0.007814,-0.004090,-0.027327,-0.882311,0.492969,3.128129,0.998473,0.054567,-0.008604,-0.054695,0.998384,-0.015398,0.007750,0.015845,0.999844
04017,2,0,-63.0000,9.310366,-1.592113,-2.716713,-0.024547,0.028858,0.015681,0.050904,-0.016659,-0.030634,0.080588,-0.477833,-1.013806,0.093103,-0.015928,-0.027163,1.000000,0.000255,-0.000083,-0.000153,-0.999579,0.007886,-0.004086,-0.027610,-0.890392,0.493012,3.160544,0.998442,0.055132,-0.008605,-0.055261,0.998351,-0.015539,0.007734,0.015990,0.999842
04018,2,0,-63.0000,9.290736,-1.562661,-2.713694,-0.012082,0.006959,-0.008422,0.052631,-0.015340,-0.027706,0.074305,-0.478464,-1.013813,0.092907,-0.015632,-0.027134,1.000000,0.000263,-0.000077,-0.000139,-0.999571,0.007930,-0.004086,-0.027892,-0.895322,0.493352,3.192884,0.998411,0.055695,-0.008611,-0.055825,0.998318,-0.015625,0.007726,0.016081,0.999841
04019,2,0,-62.0000,9.287403,-1.602974,-2.740117,-0.055797,0.025346,0.002091,0.056686,-0.016293,-0.025828,0.080755,-0.476953,-1.013347,0.092874,-0.016034,-0.027398,1.000000,0.000283,-0.000081,-0.000129,-0.999562,0.007973,-0.004094,-0.028196,-0.900041,0.494746,3.227674,0.998376,0.056302,-0.008635,-0.056432,0.998283,-0.015707,0.007736,0.016169,0.999839
04020,2,0,-62.0000,9.288478,-1.589667,-2.668572,0.007098,0.056450,-0.018766,0.054767,-0.015829,-0.022562,0.074946,-0.478292,-1.017103,0.092885,-0.015900,-0.026683,1.000000,0.000274,-0.000079,-0.000113,-0.999554,0.007995,-0.004110,-0.028486,-0.902409,0.496809,3.260862,0.998343,0.056880,-0.008671,-0.057011,0.998249,-0.015749,0.007760,0.016217,0.999838
04021,2,0,-63.0000,9.290021,-1.568427,-2.656422,0.029217,0.046874,-0.024022,0.054060,-0.018524,-0.020894,0.074290,-0.479658,-1.020998,0.092901,-0.015687,-0.026560,1.000000,0.000270,-0.000093,-0.000104,-0.999545,0.008028,-0.004141,-0.028772,-0.905999,0.500775,3.293657,0.998310,0.057451,-0.008740,-0.057584,0.998215,-0.015811,0.007816,0.016288,0.999837
04022,2,0,-62.0000,9.334219,-1.561837,-2.626022,0.070652,0.061382,0.008423,0.039770,-0.017437,-0.023454,0.072863,-0.485397,-1.011032,0.093343,-0.015624,-0.026255,1.000000,0.000199,-0.000087,-0.000117,-0.999538,0.008082,-0.004158,-0.028998,-0.912007,0.503108,3.319514,0.998284,0.057902,-0.008781,-0.058036,0.998188,-0.015916,0.007843,0.016399,0.999835
04023,2,0,-62.0000,9.332985,-1.573359,-2.699116,0.008102,0.029587,0.029282,0.036326,-0.016045,-0.022964,0.066296,-0.473163,-1.012487,0.093330,-0.015739,-0.026987,1.000000,0.000182,-0.000080,-0.000115,-0.999532,0.008145,-0.004172,-0.029201,-0.919048,0.505092,3.342749,0.998260,0.058307,-0.008815,-0.058443,0.998162,-0.016039,0.007864,0.016526,0.999833
04024,2,0,-62.0000,9.311030,-1.572813,-2.650157,0.039333,0.057875,-0.005167,0.033091,-0.018719,-0.020393,0.072633,-0.479064,-1.017377,0.093111,-0.015733,-0.026495,1.000000,0.000165,-0.000094,-0.000102,-0.999525,0.008201,-0.004200,-0.029395,-0.925212,0.508743,3.364956,0.998237,0.058693,-0.008879,-0.058831,0.998137,-0.016147,0.007915,0.016641,0.999830
04025,2,0,-62.0000,9.305880,-1.634025,-2.689953,-0.026318,0.085588,0.010615,0.034617,-0.019646,-0.017615,0.075433,-0.477166,-1.019830,0.093060,-0.016344,-0.026893,1.000000,0.000173,-0.000098,-0.000088,-0.999519,0.008255,-0.004244,-0.029586,-0.931168,0.514098,3.386750,0.998213,0.059073,-0.008973,-0.059213,0.998113,-0.016251,0.007996,0.016753,0.999828
04026,2,0,-62.0000,9.355430,-1.557351,-2.680540,0.040165,0.031263,0.042875,0.026815,-0.015509,-0.017014,0.067635,-0.474637,-1.017032,0.093555,-0.015578,-0.026800,1.000000,0.000134,-0.000078,-0.000085,-0.999514,0.008299,-0.004270,-0.029739,-0.936046,0.517377,3.404230,0.998195,0.059378,-0.009030,-0.059519,0.998093,-0.016336,0.008043,0.016844,0.999826
04027,2,0,-62.0000,9.300902,-1.552126,-2.681319,0.025580,0.025780,-0.009422,0.020428,-0.012284,-0.017855,0.079118,-0.481485,-1.017435,0.093009,-0.015527,-0.026809,1.000000,0.000102,-0.000061,-0.000089,-0.999510,0.008356,-0.004281,-0.029856,-0.942543,0.518971,3.417685,0.998181,0.059612,-0.009058,-0.059755,0.998078,-0.016449,0.008060,0.016960,0.999824
04028,2,0,-62.0000,9.299181,-1.571909,-2.694957,0.003787,0.034673,-0.004159,0.023071,-0.012325,-0.014525,0.072429,-0.479155,-1.021932,0.092992,-0.015723,-0.026946,1.000000,0.000115,-0.000062,-0.000073,-0.999506,0.008388,-0.004301,-0.029986,-0.946026,0.521419,3.432491,0.998165,0.059870,-0.009100,-0.060014,0.998061,-0.016510,0.008094,0.017026,0.999822
04029,2,0,-62.0000,9.365239,-1.565017,-2.714324,0.014141,0.020613,0.062732,0.021055,-0.007827,-0.009090,0.075098,-0.476080,-1.020491,0.093653,-0.015652,-0.027141,1.000000,0.000105,-0.000039,-0.000045,-0.999503,0.008398,-0.004318,-0.030091,-0.947093,0.523545,3.444542,0.998152,0.060080,-0.009137,-0.060225,0.998048,-0.016528,0.008127,0.017048,0.999822
04030,2,0,-61.0000,9.321989,-1.557817,-2.674023,0.035733,0.036798,0.009433,0.018323,-0.010052,-0.008349,0.078045,-0.467855,-1.017856,0.093221,-0.015580,-0.026737,1.000000,0.000092,-0.000050,-0.000042,-0.999499,0.008408,-0.004345,-0.030187,-0.948002,0.526767,3.455540,0.998140,0.060271,-0.009194,-0.060418,0.998036,-0.016544,0.008178,0.017069,0.999821
04031,2,0,-61.0000,9.336780,-1.505586,-2.667822,0.075204,-0.001135,0.013495,0.004056,-0.011283,-0.002566,0.077154,-0.476451,-1.019620,0.093369,-0.015057,-0.026673,1.000000,0.000020,-0.000056,-0.000013,-0.999499,0.008428,-0.004394,-0.030206,-0.950196,0.532412,3.457625,0.998137,0.060308,-0.009292,-0.060456,0.998033,-0.016583,0.008274,0.017113,0.999819
04032,2,0,-61.0000,9.318301,-1.598826,-2.701318,-0.007783,0.054801,0.019964,0.007288,-0.008603,-0.005153,0.074215,-0.473348,-1.019433,0.093184,-0.015990,-0.027010,1.000000,0.000036,-0.000043,-0.000026,-0.999498,0.008440,-0.004425,-0.030231,-0.951396,0.536012,3.460486,0.998133,0.060358,-0.009355,-0.060507,0.998030,-0.016604,0.008334,0.017139,0.999818
04033,2,0,-61.0000,9.316504,-1.619417,-2.714744,-0.029546,0.063872,0.025231,0.009017,-0.007283,-0.002215,0.077187,-0.475011,-1.016549,0.093166,-0.016194,-0.027145,1.000000,0.000045,-0.000036,-0.000011,-0.999496,0.008441,-0.004458,-0.030270,-0.951353,0.539872,3.464868,0.998128,0.060434,-0.009422,-0.060584,0.998025,-0.016603,0.008400,0.017143,0.999818
04034,2,0,-61.0000,9.329304,-1.595831,-2.661843,0.028771,0.075966,0.018966,0.003844,-0.007219,-0.004650,0.076333,-0.477445,-1.018582,0.093294,-0.015960,-0.026615,1.000000,0.000019,-0.000036,-0.000023,-0.999496,0.008451,-0.004483,-0.030282,-0.952474,0.542827,3.466280,0.998126,0.060458,-0.009474,-0.060610,0.998023,-0.016622,0.008450,0.017165,0.999817
04035,2,0,-60.0000,9.296550,-1.590891,-2.712192,-0.016937,0.041768,0.001116,0.002629,-0.004064,-0.003049,0.083423,-0.477982,-1.007283,0.092966,-0.015910,-0.027120,1.000000,0.000013,-0.000020,-0.000015,-0.999495,0.008457,-0.004500,-0.030289,-0.953037,0.544815,3.467030,0.998125,0.060471,-0.009509,-0.060624,0.998022,-0.016632,0.008484,0.017177,0.999816
04036,2,0,-60.0000,9.293227,-1.632081,-2.738100,-0.060621,0.059979,0.011654,0.001715,-0.002702,-0.003443,0.078879,-0.475439,-1.015046,0.092932,-0.016322,-0.027380,1.000000,0.000009,-0.000014,-0.000017,-0.999495,0.008452,-0.004511,-0.030289,-0.952435,0.546041,3.467065,0.998124,0.060472,-0.009530,-0.060625,0.998022,-0.016622,0.008506,0.017168,0.999816
04037,2,0,-60.0000,9.283171,-1.621606,-2.706859,-0.033918,0.069430,-0.008200,0.002216,-0.002249,-0.005285,0.074849,-0.479155,-1.014504,0.092832,-0.016218,-0.027068,1.000000,0.000011,-0.000011,-0.000026,-0.999495,0.008462,-0.004515,-0.030296,-0.953566,0.546462,3.467776,0.998124,0.060484,-0.009537,-0.060637,0.998021,-0.016641,0.008512,0.017188,0.999816
04038,2,0,-60.0000,9.269843,-1.652749,-2.701102,-0.051093,0.097359,-0.017514,-0.001415,0.000908,0.001447,0.082032,-0.471534,-1.020696,0.092698,-0.016527,-0.027011,1.000000,-0.000007,0.000005,0.000007,-0.999496,0.008433,-0.004523,-0.030273,-0.950314,0.547304,3.465214,0.998126,0.060440,-0.009552,-0.060592,0.998025,-0.016585,0.008531,0.017132,0.999817
04039,2,0,-60.0000,9.292876,-1.639386,-2.678997,-0.019297,0.099894,-0.003925,0.003031,0.000432,-0.002741,0.070040,-0.486236,-1.024235,0.092928,-0.016395,-0.026790,1.000000,0.000015,0.000002,-0.000014,-0.999496,0.008425,-0.004522,-0.030278,-0.949347,0.547213,3.465741,0.998126,0.060449,-0.009551,-0.060601,0.998025,-0.016568,0.008530,0.017115,0.999817
04040,2,0,-60.0000,9.318027,-1.596927,-2.703385,-0.006372,0.052071,0.019980,-0.002256,0.000515,-0.009407,0.073352,-0.484584,-1.020949,0.093179,-0.015974,-0.027034,1.000000,-0.000011,0.000003,-0.000047,-0.999496,0.008442,-0.004502,-0.030270,-0.951352,0.544871,3.464902,0.998127,0.060434,-0.009510,-0.060586,0.998025,-0.016603,0.008487,0.017148,0.999817
04041,2,0,-62.0000,9.304778,-1.627610,-2.697642,-0.023542,0.080179,0.010668,-0.001729,-0.001320,-0.002939,0.078670,-0.486880,-1.014978,0.093048,-0.016278,-0.026976,1.000000,-0.000009,-0.000007,-0.000015,-0.999496,0.008446,-0.004507,-0.030254,-0.951858,0.545525,3.463020,0.998129,0.060402,-0.009521,-0.060554,0.998027,-0.016612,0.008499,0.017157,0.999817
04042,2,0,-60.0000,9.283475,-1.619832,-2.706878,-0.033070,0.067581,-0.008184,-0.001028,0.001381,-0.004627,0.066905,-0.479169,-1.018335,0.092834,-0.016201,-0.027069,1.000000,-0.000005,0.000007,-0.000023,-0.999496,0.008438,-0.004496,-0.030257,-0.950883,0.544166,3.463335,0.998129,0.060407,-0.009497,-0.060559,0.998027,-0.016595,0.008476,0.017139,0.999817
04043,2,0,-60.0000,9.304973,-1.626531,-2.697620,-0.023210,0.079441,0.010674,-0.004786,0.000536,-0.008509,0.077093,-0.470519,-1.013181,0.093049,-0.016270,-0.026976,1.000000,-0.000024,0.000003,-0.000043,-0.999497,0.008464,-0.004478,-0.030232,-0.953952,0.542188,3.460486,0.998132,0.060357,-0.009463,-0.060509,0.998029,-0.016648,0.008439,0.017190,0.999817
04044,2,0,-60.0000,9.314796,-1.643747,-2.669711,-0.008787,0.110183,0.014951,-0.000527,0.001835,-0.006469,0.078252,-0.477874,-1.016383,0.093147,-0.016441,-0.026698,1.000000,-0.000003,0.000009,-0.000032,-0.999497,0.008464,-0.004459,-0.030222,-0.954058,0.540026,3.459380,0.998133,0.060338,-0.009425,-0.060489,0.998030,-0.016650,0.008402,0.017189,0.999817
04045,2,0,-59.0000,9.295641,-1.607123,-2.725156,-0.037159,0.047637,0.006407,0.001088,0.003176,-0.007763,0.079989,-0.473746,-1.023111,0.092955,-0.016075,-0.027253,1.000000,0.000005,0.000016,-0.000039,-0.999497,0.008471,-0.004433,-0.030222,-0.954940,0.537052,3.459386,0.998134,0.060338,-0.009373,-0.060489,0.998030,-0.016665,0.008349,0.017201,0.999817
04046,2,0,-59.0000,9.325245,-1.652489,-2.700665,-0.034940,0.099808,0.034816,0.005948,0.000887,-0.009716,0.073465,-0.476852,-1.018675,0.093252,-0.016529,-0.027008,1.000000,0.000030,0.000004,-0.000049,-0.999497,0.008476,-0.004412,-0.030246,-0.955549,0.534664,3.462147,0.998131,0.060386,-0.009332,-0.060536,0.998027,-0.016676,0.008306,0.017210,0.999817
04047,2,0,-59.0000,9.299218,-1.564507,-2.699132,0.007080,0.028307,-0.004140,0.005561,0.000413,-0.003641,0.065868,-0.471996,-1.022619,0.092992,-0.015646,-0.026992,1.000000,0.000028,0.000002,-0.000018,-0.999496,0.008467,-0.004409,-0.030264,-0.954537,0.534330,3.464192,0.998129,0.060422,-0.009326,-0.060571,0.998025,-0.016658,0.008301,0.017192,0.999818
04048,2,0,-60.0000,9.311062,-1.553604,-2.717426,0.002624,0.008879,0.010442,-0.000628,0.005877,-0.004320,0.074020,-0.476333,-1.009355,0.093109,-0.015538,-0.027177,1.000000,-0.000003,0.000029,-0.000022,-0.999497,0.008449,-0.004379,-0.030249,-0.952574,0.530801,3.462510,0.998132,0.060393,-0.009264,-0.060541,0.998027,-0.016624,0.008242,0.017154,0.999819
04049,2,0,-60.0000,9.340688,-1.599381,-2.692611,0.004832,0.061207,0.038854,-0.000014,0.006310,-0.001930,0.068106,-0.483232,-1.014618,0.093406,-0.015995,-0.026929,1.000000,-0.000000,0.000032,-0.000010,-0.999498,0.008426,-0.004356,-0.030233,-0.950071,0.528084,3.460739,0.998134,0.060362,-0.009217,-0.060509,0.998030,-0.016580,0.008198,0.017107,0.999820
04050,2,0,-60.0000,9.334471,-1.539882,-2.694178,0.034560,0.010955,0.024023,-0.002845,0.008125,0.000965,0.069777,-0.477253,-1.017730,0.093344,-0.015399,-0.026945,1.000000,-0.000014,0.000041,0.000005,-0.999499,0.008382,-0.004331,-0.030206,-0.945135,0.525066,3.457665,0.998138,0.060308,-0.009164,-0.060454,0.998035,-0.016494,0.008151,0.017018,0.999822
04051,2,0,-60.0000,9.311721,-1.553179,-2.715407,0.003113,0.007926,0.010443,-0.007204,0.010868,0.001074,0.074213,-0.485653,-1.015837,0.093116,-0.015532,-0.027159,1.000000,-0.000036,0.000054,0.000005,-0.999501,0.008347,-0.004297,-0.030148,-0.941236,0.520998,3.451113,0.998145,0.060194,-0.009093,-0.060338,0.998043,-0.016426,0.008086,0.016944,0.999824
04052,2,0,-60.0000,9.321670,-1.571052,-2.686644,0.017535,0.038622,0.014723,-0.013180,0.012270,0.002476,0.075766,-0.478868,-1.020452,0.093215,-0.015711,-0.026871,1.000000,-0.000066,0.000061,0.000012,-0.999504,0.008302,-0.004259,-0.030069,-0.936270,0.516368,3.442079,0.998155,0.060037,-0.009012,-0.060178,0.998054,-0.016340,0.008014,0.016852,0.999826
04053,2,0,-60.0000,9.321926,-1.571079,-2.685738,0.017712,0.038368,0.014724,-0.011651,0.011343,0.005261,0.080240,-0.475439,-1.010868,0.093218,-0.015710,-0.026862,1.000000,-0.000058,0.000057,0.000026,-0.999507,0.008256,-0.004234,-0.029984,-0.931126,0.513313,3.432415,0.998166,0.059869,-0.008959,-0.060009,0.998066,-0.016250,0.007969,0.016758,0.999828
04054,2,0,-60.0000,9.300667,-1.564136,-2.694349,0.008206,0.025839,-0.004134,-0.014971,0.006392,0.011925,0.068904,-0.468567,-1.017446,0.093007,-0.015638,-0.026945,1.000000,-0.000075,0.000032,0.000060,-0.999511,0.008194,-0.004248,-0.029877,-0.923992,0.514661,3.420154,0.998179,0.059655,-0.008982,-0.059794,0.998080,-0.016125,0.008003,0.016633,0.999830
04055,2,0,-60.0000,9.297477,-1.606163,-2.719452,-0.035483,0.044252,0.006429,-0.015184,0.010457,0.009840,0.076195,-0.477182,-1.020334,0.092974,-0.016059,-0.027198,1.000000,-0.000076,0.000052,0.000049,-0.999515,0.008138,-0.004240,-0.029770,-0.917655,0.513408,3.407935,0.998192,0.059442,-0.008961,-0.059580,0.998095,-0.016015,0.007992,0.016520,0.999832
04056,2,0,-60.0000,9.330253,-1.611425,-2.668707,0.010583,0.077778,0.024291,-0.010424,0.012210,0.010039,0.077662,-0.469724,-1.025691,0.093302,-0.016111,-0.026692,1.000000,-0.000052,0.000061,0.000050,-0.999518,0.008062,-0.004224,-0.029678,-0.909110,0.511257,3.397485,0.998203,0.059260,-0.008923,-0.059396,0.998108,-0.015866,0.007966,0.016367,0.999834
04057,2,0,-60.0000,9.332474,-1.583443,-2.714268,-0.008118,0.027345,0.034586,-0.016600,0.011367,0.011283,0.081258,-0.474306,-1.022241,0.093324,-0.015831,-0.027147,1.000000,-0.000083,0.000057,0.000056,-0.999522,0.008000,-0.004216,-0.029562,-0.902105,0.509996,3.384191,0.998217,0.059029,-0.008901,-0.059164,0.998124,-0.015743,0.007955,0.016242,0.999836
04058,2,0,-59.0000,9.322517,-1.574042,-2.681951,0.018606,0.036672,0.014728,-0.016901,0.013162,0.013276,0.058351,-0.481377,-1.017345,0.093224,-0.015736,-0.026824,1.000000,-0.000085,0.000066,0.000066,-0.999527,0.007920,-0.004207,-0.029430,-0.893000,0.508563,3.369060,0.998232,0.058765,-0.008876,-0.058898,0.998142,-0.015585,0.007944,0.016080,0.999839
04059,2,0,-60.0000,9.322662,-1.574923,-2.680928,0.018782,0.036417,0.014729,-0.019733,0.014979,0.016165,0.064346,-0.483330,-1.019812,0.093226,-0.015744,-0.026815,1.000000,-0.000099,0.000075,0.000081,-0.999531,0.007834,-0.004197,-0.029289,-0.883275,0.507026,3.352988,0.998249,0.058485,-0.008849,-0.058617,0.998162,-0.015415,0.007931,0.015907,0.999842
04060,2,0,-59.0000,9.334602,-1.565145,-2.698299,0.014267,0.016950,0.029305,-0.021059,0.018160,0.013530,0.071862,-0.476161,-1.021234,0.093345,-0.015648,-0.026990,1.000000,-0.000105,0.000091,0.000068,-0.999536,0.007744,-0.004161,-0.029159,-0.873096,0.502515,3.338159,0.998265,0.058227,-0.008770,-0.058356,0.998180,-0.015237,0.007867,0.015723,0.999845
04061,2,0,-60.0000,9.332704,-1.594818,-2.650508,0.033325,0.066872,0.019018,-0.022867,0.018593,0.021043,0.077185,-0.475942,-1.025022,0.093326,-0.015941,-0.026512,1.000000,-0.000114,0.000093,0.000105,-0.999542,0.007634,-0.004150,-0.028994,-0.860650,0.500703,3.319308,0.998284,0.057898,-0.008739,-0.058025,0.998202,-0.015020,0.007853,0.015501,0.999849
04062,2,0,-60.0000,9.321619,-1.598793,-2.689867,-0.002730,0.044678,0.020018,-0.015476,0.016281,0.018199,0.074431,-0.480875,-1.020273,0.093215,-0.015982,-0.026905,1.000000,-0.000077,0.000081,0.000091,-0.999546,0.007523,-0.004140,-0.028868,-0.848034,0.499090,3.304888,0.998299,0.057647,-0.008711,-0.057772,0.998220,-0.014800,0.007842,0.015278,0.999853
04063,2,0,-60.0000,9.299930,-1.600688,-2.638457,0.028565,0.073169,-0.014413,-0.019222,0.019462,0.020689,0.078366,-0.479297,-1.016163,0.092998,-0.016000,-0.026392,1.000000,-0.000096,0.000097,0.000103,-0.999552,0.007407,-0.004124,-0.028720,-0.834830,0.496787,3.287999,0.998316,0.057353,-0.008670,-0.057475,0.998241,-0.014569,0.007820,0.015043,0.999856
04064,2,0,-60.0000,9.310229,-1.612171,-2.668394,0.002210,0.063040,0.005449,-0.019222,0.019465,0.020684,0.075419,-0.476795,-1.014433,0.093101,-0.016115,-0.026691,1.000000,-0.000096,0.000097,0.000103,-0.999557,0.007282,-0.004108,-0.028574,-0.820641,0.494390,3.271380,0.998333,0.057063,-0.008629,-0.057183,0.998261,-0.014322,0.007796,0.014791,0.999860
04065,2,0,-61.0000,9.320006,-1.631679,-2.638998,0.016679,0.093921,0.009741,-0.015576,0.020330,0.020337,0.079908,-0.478154,-1.012814,0.093199,-0.016309,-0.026398,1.000000,-0.000078,0.000102,0.000102,-0.999561,0.007159,-0.004088,-0.028443,-0.806679,0.491595,3.256454,0.998349,0.056803,-0.008580,-0.056920,0.998279,-0.014078,0.007765,0.014543,0.999864
04066,2,0,-61.0000,9.331995,-1.622559,-2.655840,0.012264,0.074464,0.024315,-0.017905,0.022605,0.021380,0.086582,-0.468419,-1.018070,0.093319,-0.016218,-0.026567,1.000000,-0.000090,0.000113,0.000107,-0.999567,0.007021,-0.004061,-0.028295,-0.791072,0.487968,3.239519,0.998366,0.056508,-0.008517,-0.056622,0.998300,-0.013806,0.007722,0.014266,0.999868
04067,2,0,-61.0000,9.320443,-1.634754,-2.635549,0.017037,0.093251,0.009746,-0.013549,0.019856,0.021275,0.079983,-0.473416,-1.013095,0.093204,-0.016339,-0.026364,1.000000,-0.000068,0.000099,0.000106,-0.999571,0.006892,-0.004046,-0.028173,-0.776448,0.485713,3.225593,0.998380,0.056265,-0.008477,-0.056377,0.998318,-0.013551,0.007700,0.014007,0.999872
04068,2,0,-61.0000,9.330745,-1.646443,-2.665376,-0.009269,0.083171,0.029610,-0.016080,0.019883,0.022163,0.082142,-0.480204,-1.020475,0.093307,-0.016456,-0.026662,1.000000,-0.000080,0.000099,0.000111,-0.999576,0.006758,-0.004035,-0.028021,-0.761155,0.483883,3.208311,0.998397,0.055964,-0.008445,-0.056073,0.998338,-0.013284,0.007688,0.013736,0.999876
04069,2,0,-61.0000,9.330888,-1.647968,-2.663934,-0.009092,0.082915,0.029612,-0.010918,0.015793,0.018227,0.077802,-0.475685,-1.014182,0.093308,-0.016473,-0.026646,1.000000,-0.000055,0.000079,0.000091,-0.999580,0.006648,-0.004028,-0.027919,-0.748635,0.482686,3.196647,0.998409,0.055761,-0.008424,-0.055868,0.998353,-0.013065,0.007682,0.013515,0.999879
04070,2,0,-60.0000,9.307464,-1.670731,-2.625363,0.000290,0.120594,0.000478,-0.013549,0.019863,0.021263,0.076071,-0.488985,-1.012334,0.093074,-0.016699,-0.026262,1.000000,-0.000068,0.000099,0.000106,-0.999584,0.006511,-0.004013,-0.027793,-0.733117,0.480442,3.182287,0.998423,0.055511,-0.008385,-0.055615,0.998370,-0.012795,0.007661,0.013241,0.999883
04071,2,0,-60.0000,9.345607,-1.607192,-2.594620,0.071353,0.085359,0.018035,-0.010511,0.013978,0.020456,0.069517,-0.483438,-1.010712,0.093456,-0.016064,-0.025952,1.000000,-0.000053,0.000070,0.000102,-0.999588,0.006397,-0.004020,-0.027691,-0.720034,0.480816,3.170665,0.998434,0.055308,-0.008392,-0.055411,0.998385,-0.012566,0.007683,0.013012,0.999886
04072,2,0,-60.0000,9.305978,-1.694497,-2.635700,-0.021320,0.129228,0.005780,-0.009502,0.014888,0.016776,0.076275,-0.486361,-1.014712,0.093059,-0.016938,-0.026363,1.000000,-0.000048,0.000074,0.000084,-0.999591,0.006283,-0.004011,-0.027609,-0.707048,0.479354,3.161238,0.998443,0.055144,-0.008366,-0.055245,0.998397,-0.012340,0.007672,0.012783,0.999889
04073,2,0,-60.0000,9.288092,-1.647115,-2.617840,0.013007,0.098205,-0.023667,-0.008688,0.017569,0.019318,0.079474,-0.479182,-1.016267,0.092880,-0.016463,-0.026186,1.000000,-0.000043,0.000088,0.000097,-0.999594,0.006161,-0.004000,-0.027514,-0.693103,0.477658,3.150461,0.998454,0.054956,-0.008337,-0.055055,0.998410,-0.012096,0.007659,0.012536,0.999892
04074,2,0,-60.0000,9.280325,-1.609940,-2.631479,0.020802,0.057305,-0.033255,-0.013044,0.014009,0.021336,0.071498,-0.481276,-1.017007,0.092803,-0.016091,-0.026320,1.000000,-0.000065,0.000070,0.000107,-0.999598,0.006038,-0.004009,-0.027401,-0.679059,0.478183,3.137599,0.998466,0.054732,-0.008346,-0.054829,0.998425,-0.011851,0.007684,0.012291,0.999895
04075,2,0,-60.0000,9.300004,-1.639626,-2.634050,0.008756,0.078477,-0.009095,-0.016186,0.013608,0.019833,0.069866,-0.482048,-1.015191,0.093000,-0.016389,-0.026346,1.000000,-0.000081,0.000068,0.000099,-0.999602,0.005936,-0.004016,-0.027274,-0.667401,0.478519,3.123015,0.998480,0.054478,-0.008352,-0.054573,0.998442,-0.011648,0.007704,0.012086,0.999897
04076,2,0,-60.0000,9.321301,-1.648592,-2.623866,0.018596,0.090149,0.009773,-0.020339,0.012298,0.022004,0.080484,-0.483394,-1.015313,0.093213,-0.016478,-0.026243,1.000000,-0.000102,0.000061,0.000110,-0.999607,0.005827,-0.004031,-0.027129,-0.654996,0.479842,3.106419,0.998496,0.054189,-0.008375,-0.054283,0.998460,-0.011431,0.007742,0.011869,0.999900
04077,2,0,-60.0000,9.317953,-1.691460,-2.648790,-0.025077,0.108579,0.020367,-0.016692,0.013157,0.021663,0.075495,-0.477435,-1.008038,0.093180,-0.016907,-0.026493,1.000000,-0.000083,0.000066,0.000108,-0.999611,0.005720,-0.004044,-0.026996,-0.642725,0.480960,3.091320,0.998510,0.053926,-0.008394,-0.054018,0.998477,-0.011217,0.007777,0.011654,0.999902
04078,2,0,-60.0000,9.318000,-1.692703,-2.647831,-0.024903,0.108163,0.020372,-0.012341,0.012700,0.013269,0.066608,-0.475409,-1.013359,0.093179,-0.016922,-0.026483,1.000000,-0.000062,0.000063,0.000066,-0.999614,0.005632,-0.004036,-0.026895,-0.632706,0.479676,3.079702,0.998521,0.053723,-0.008372,-0.053814,0.998490,-0.011042,0.007766,0.011476,0.999904
04079,2,0,-60.0000,9.329926,-1.683107,-2.665358,-0.029323,0.088861,0.034939,-0.011732,0.013130,0.015656,0.073563,-0.483579,-1.010747,0.093299,-0.016825,-0.026659,1.000000,-0.000059,0.000066,0.000078,-0.999617,0.005540,-0.004033,-0.026794,-0.622290,0.478998,3.068226,0.998532,0.053523,-0.008360,-0.053613,0.998503,-0.010860,0.007766,0.011293,0.999906
04080,2,0,-60.0000,9.296854,-1.687509,-2.655123,-0.034296,0.095428,0.001515,-0.010212,0.012195,0.018440,0.073730,-0.480487,-1.014139,0.092968,-0.016868,-0.026556,1.000000,-0.000051,0.000061,0.000092,-0.999621,0.005431,-0.004040,-0.026699,-0.609762,0.479356,3.057312,0.998542,0.053333,-0.008366,-0.053421,0.998515,-0.010642,0.007786,0.011073,0.999908
04081,2,0,-60.0000,9.286804,-1.678731,-2.622475,-0.007596,0.104877,-0.018343,-0.004840,0.016664,0.012749,0.078318,-0.481617,-1.019229,0.092867,-0.016782,-0.026232,1.000000,-0.000024,0.000083,0.000064,-0.999623,0.005331,-0.004014,-0.026632,-0.598387,0.476121,3.049716,0.998549,0.053201,-0.008310,-0.053286,0.998525,-0.010443,0.007742,0.010871,0.999911
04082,2,0,-60.0000,9.321793,-1.656031,-2.617429,0.019601,0.088155,0.009789,-0.005045,0.014415,0.012592,0.081514,-0.485781,-1.026433,0.093217,-0.016555,-0.026181,1.000000,-0.000025,0.000072,0.000063,-0.999625,0.005230,-0.003997,-0.026565,-0.586900,0.473799,3.042178,0.998557,0.053069,-0.008269,-0.053153,0.998534,-0.010243,0.007714,0.010668,0.999913
04083,2,0,-62.0000,9.344005,-1.656398,-2.666092,-0.011344,0.059147,0.044214,-0.004539,0.014871,0.010754,0.084088,-0.478535,-1.018541,0.093439,-0.016560,-0.026667,1.000000,-0.000023,0.000074,0.000054,-0.999628,0.005141,-0.003974,-0.026504,-0.576907,0.470824,3.035211,0.998563,0.052948,-0.008217,-0.053030,0.998542,-0.010068,0.007672,0.010490,0.999916
04084,2,0,-62.0000,9.318891,-1.699083,-2.640599,-0.023874,0.106180,0.020397,0.001033,0.015268,0.007144,0.078125,-0.483663,-1.010949,0.093188,-0.016987,-0.026413,1.000000,0.000005,0.000076,0.000036,-0.999629,0.005050,-0.003940,-0.026471,-0.566534,0.466624,3.031503,0.998567,0.052883,-0.008144,-0.052963,0.998548,-0.009887,0.007609,0.010305,0.999918
04085,2,0,-62.0000,9.289335,-1.661719,-2.604164,0.015038,0.094207,-0.023631,0.000019,0.014360,0.010815,0.076631,-0.480281,-1.004813,0.092892,-0.016612,-0.026048,1.000000,0.000000,0.000072,0.000054,-0.999631,0.004956,-0.003919,-0.026432,-0.555833,0.463941,3.027055,0.998572,0.052806,-0.008097,-0.052883,0.998554,-0.009701,0.007573,0.010115,0.999920
04086,2,0,-62.0000,9.286249,-1.703852,-2.628571,-0.028637,0.112480,-0.013021,0.006098,0.015211,0.005371,0.073040,-0.484550,-1.016225,0.092861,-0.017035,-0.026293,1.000000,0.000030,0.000076,0.000027,-0.999631,0.004863,-0.003879,-0.026427,-0.545308,0.459109,3.026546,0.998573,0.052797,-0.008013,-0.052872,0.998556,-0.009517,0.007499,0.009927,0.999923
04087,2,0,-63.0000,9.301675,-1.652697,-2.619943,0.010783,0.074481,-0.009066,0.003763,0.011170,0.008335,0.074926,-0.477584,-1.011961,0.093016,-0.016523,-0.026205,1.000000,0.000019,0.000056,0.000042,-0.999632,0.004781,-0.003865,-0.026411,-0.535995,0.457227,3.024805,0.998575,0.052767,-0.007980,-0.052841,0.998559,-0.009354,0.007475,0.009763,0.999924
04088,2,0,-62.0000,9.335008,-1.650433,-2.627930,0.016050,0.067099,0.024363,0.001943,0.013904,0.007538,0.074744,-0.486607,-1.015240,0.093349,-0.016501,-0.026286,1.000000,0.000010,0.000070,0.000038,-0.999633,0.004691,-0.003836,-0.026385,-0.525720,0.453599,3.021871,0.998578,0.052715,-0.007917,-0.052787,0.998564,-0.009175,0.007422,0.009580,0.999927
04089,2,0,-62.0000,9.353205,-1.700098,-2.642999,-0.017901,0.097610,0.053841,-0.001801,0.017097,0.010013,0.079845,-0.491149,-1.011766,0.093531,-0.016997,-0.026438,1.000000,-0.000009,0.000085,0.000050,-0.999635,0.004595,-0.003802,-0.026336,-0.514915,0.449340,3.016302,0.998584,0.052618,-0.007842,-0.052688,0.998571,-0.008987,0.007358,0.009387,0.999929
04090,2,0,-62.0000,9.290523,-1.665761,-2.597338,0.015879,0.092431,-0.023615,0.001943,0.013905,0.007536,0.084563,-0.484301,-1.018696,0.092904,-0.016654,-0.025980,1.000000,0.000010,0.000070,0.000038,-0.999636,0.004503,-0.003773,-0.026317,-0.504408,0.445750,3.014146,0.998586,0.052581,-0.007780,-0.052649,0.998574,-0.008803,0.007306,0.009200,0.999931
04091,2,0,-60.0000,9.324719,-1.655363,-2.664391,-0.019668,0.044368,0.025363,0.003059,0.014789,0.008087,0.084759,-0.480393,-1.010029,0.093246,-0.016549,-0.026651,1.000000,0.000015,0.000074,0.000040,-0.999637,0.004413,-0.003743,-0.026295,-0.494276,0.442041,3.011728,0.998589,0.052539,-0.007715,-0.052605,0.998578,-0.008626,0.007251,0.009020,0.999933
04092,2,0,-60.0000,9.322511,-1.684889,-2.616607,-0.000547,0.094127,0.015122,0.003566,0.015244,0.006250,0.081514,-0.489595,-1.007175,0.093224,-0.016846,-0.026173,1.000000,0.000018,0.000076,0.000031,-0.999639,0.004321,-0.003707,-0.026273,-0.483825,0.437648,3.009234,0.998592,0.052495,-0.007638,-0.052559,0.998582,-0.008444,0.007184,0.008834,0.999935
04093,2,0,-60.0000,9.348240,-1.643829,-2.639103,0.012346,0.046416,0.038928,0.001847,0.017954,0.009675,0.077493,-0.486081,-1.009459,0.093481,-0.016434,-0.026400,1.000000,0.000009,0.000090,0.000048,-0.999640,0.004219,-0.003668,-0.026241,-0.472260,0.432891,3.005622,0.998596,0.052432,-0.007555,-0.052494,0.998587,-0.008242,0.007112,0.008627,0.999937
04094,2,0,-60.0000,9.312026,-1.689167,-2.654215,-0.036432,0.071658,0.016123,0.002550,0.014338,0.009919,0.079176,-0.488361,-1.011805,0.093119,-0.016887,-0.026549,1.000000,0.000013,0.000072,0.000050,-0.999641,0.004115,-0.003645,-0.026218,-0.460433,0.429894,3.003007,0.998599,0.052387,-0.007503,-0.052447,0.998591,-0.008036,0.007071,0.008418,0.999940
04095,2,0,-60.0000,9.303760,-1.659354,-2.608305,0.012185,0.071757,-0.009047,0.004889,0.018380,0.006952,0.081791,-0.480639,-1.014968,0.093036,-0.016590,-0.026092,1.000000,0.000024,0.000092,0.000035,-0.999642,0.004018,-0.003597,-0.026204,-0.449437,0.424109,3.001425,0.998601,0.052359,-0.007402,-0.052417,0.998594,-0.007844,0.006981,0.008221,0.999942
04096,2,0,-60.0000,9.327926,-1.638790,-2.643533,0.003163,0.033232,0.020063,-0.004228,0.019409,0.006815,0.077864,-0.484469,-1.010607,0.093277,-0.016385,-0.026444,1.000000,-0.000021,0.000097,0.000034,-0.999644,0.003924,-0.003544,-0.026144,-0.438914,0.417730,2.994614,0.998608,0.052241,-0.007291,-0.052296,0.998602,-0.007660,0.006880,0.008031,0.999944
04097,2,0,-60.0000,9.324086,-1.688785,-2.608471,0.000346,0.092499,0.015137,0.000124,0.016645,0.006729,0.082735,-0.480787,-1.014249,0.093239,-0.016885,-0.026092,1.000000,0.000001,0.000083,0.000034,-0.999646,0.003840,-0.003502,-0.026108,-0.429392,0.412697,2.990628,0.998612,0.052171,-0.007203,-0.052225,0.998607,-0.007494,0.006802,0.007860,0.999946
04098,2,0,-60.0000,9.332981,-1.720218,-2.651171,-0.047908,0.091739,0.040316,0.005797,0.017015,0.007348,0.069909,-0.485380,-1.017259,0.093328,-0.017198,-0.026520,1.000000,0.000029,0.000085,0.000037,-0.999646,0.003735,-0.003461,-0.026095,-0.417563,0.407691,2.989155,0.998614,0.052146,-0.007115,-0.052197,0.998610,-0.007288,0.006726,0.007649,0.999948
04099,2,0,-60.0000,9.302549,-1.690950,-2.555345,0.031834,0.120592,-0.019273,0.012683,0.014220,0.006380,0.079696,-0.483262,-1.018394,0.093024,-0.016905,-0.025561,1.000000,0.000063,0.000071,0.000032,-0.999646,0.003639,-0.003430,-0.026122,-0.406632,0.403773,2.992284,0.998612,0.052200,-0.007047,-0.052250,0.998609,-0.007097,0.006667,0.007455,0.999950
04100,2,0,-60.0000,9.325002,-1.691263,-2.603587,0.000870,0.091431,0.015147,0.010865,0.016956,0.005579,0.078981,-0.493230,-1.011228,0.093248,-0.016909,-0.026045,1.000000,0.000054,0.000085,0.000028,-0.999646,0.003534,-0.003383,-0.026139,-0.394745,0.398136,2.994308,0.998611,0.052235,-0.006949,-0.052283,0.998609,-0.006889,0.006579,0.007243,0.999952
04101,2,0,-60.0000,9.280208,-1.705802,-2.574388,0.000535,0.117225,-0.032823,0.011057,0.012885,0.007660,0.083632,-0.486422,-1.013771,0.092801,-0.017053,-0.025751,1.000000,0.000055,0.000064,0.000038,-0.999646,0.003439,-0.003360,-0.026157,-0.383915,0.395250,2.996480,0.998609,0.052273,-0.006898,-0.052320,0.998608,-0.006700,0.006539,0.007052,0.999954
04102,2,0,-61.0000,9.305937,-1.664605,-2.597171,0.013427,0.069323,-0.009031,0.006706,0.011625,0.001380,0.077094,-0.486944,-1.007789,0.093058,-0.016645,-0.025978,1.000000,0.000034,0.000058,0.000007,-0.999646,0.003370,-0.003325,-0.026167,-0.376053,0.391009,2.997600,0.998608,0.052293,-0.006824,-0.052338,0.998608,-0.006563,0.006472,0.006911,0.999955
04103,2,0,-61.0000,9.317124,-1.662604,-2.555366,0.049847,0.090829,-0.010024,0.001528,0.009413,0.007216,0.073186,-0.493055,-1.010880,0.093171,-0.016622,-0.025558,1.000000,0.000008,0.000047,0.000036,-0.999647,0.003301,-0.003315,-0.026144,-0.368169,0.389630,2.994968,0.998611,0.052247,-0.006800,-0.052291,0.998611,-0.006426,0.006455,0.006772,0.999956
04104,2,0,-62.0000,9.315613,-1.683735,-2.567420,0.028090,0.099747,-0.004705,0.000317,0.008552,0.002441,0.079255,-0.485852,-1.011061,0.093155,-0.016836,-0.025678,1.000000,0.000002,0.000043,0.000012,-0.999648,0.003245,-0.003294,-0.026126,-0.361902,0.387031,2.993012,0.998613,0.052213,-0.006755,-0.052256,0.998614,-0.006316,0.006416,0.006660,0.999957
04105,2,0,-62.0000,9.312480,-1.725223,-2.592444,-0.015563,0.118198,0.005930,-0.004241,0.009067,0.002370,0.082881,-0.491497,-1.015323,0.093124,-0.017252,-0.025928,1.000000,-0.000021,0.000045,0.000012,-0.999649,0.003205,-0.003271,-0.026082,-0.357384,0.384310,2.988003,0.998618,0.052126,-0.006707,-0.052168,0.998619,-0.006237,0.006373,0.006579,0.999958
04106,2,0,-63.0000,9.357720,-1.711472,-2.619575,-0.014863,0.091710,0.053902,-0.002423,0.002305,-0.003189,0.072127,-0.484213,-1.019266,0.093577,-0.017117,-0.026197,1.000000,-0.000012,0.000012,-0.000016,-0.999650,0.003193,-0.003261,-0.026061,-0.356055,0.383140,2.985505,0.998620,0.052082,-0.006687,-0.052124,0.998621,-0.006214,0.006354,0.006554,0.999958
04107,2,0,-64.0000,9.326336,-1.693578,-2.597295,0.002111,0.089101,0.015168,-0.002726,0.004103,-0.001202,0.081988,-0.483674,-1.012208,0.093263,-0.016937,-0.025975,1.000000,-0.000014,0.000021,-0.000006,-0.999651,0.003178,-0.003250,-0.026033,-0.354351,0.381724,2.982322,0.998623,0.052027,-0.006662,-0.052068,0.998624,-0.006184,0.006331,0.006523,0.999959
04108,2,0,-66.0000,9.326485,-1.693267,-2.596964,0.002284,0.088700,0.015172,-0.000797,0.003642,-0.004472,0.076403,-0.486270,-1.010388,0.093264,-0.016935,-0.025971,1.000000,-0.000004,0.000018,-0.000022,-0.999651,0.003166,-0.003230,-0.026016,-0.353089,0.379453,2.980428,0.998625,0.051994,-0.006623,-0.052035,0.998626,-0.006162,0.006293,0.006499,0.999959
04109,2,0,-67.0000,9.305373,-1.685285,-2.606150,-0.007265,0.076390,-0.003698,0.002439,-0.000008,-0.005105,0.074357,-0.484041,-1.017681,0.093053,-0.016855,-0.026062,1.000000,0.000012,-0.000000,-0.000026,-0.999651,0.003169,-0.003225,-0.026021,-0.353441,0.378840,2.981031,0.998625,0.052004,-0.006612,-0.052045,0.998626,-0.006169,0.006282,0.006504,0.999959
04110,2,0,-69.0000,9.328374,-1.671941,-2.583650,0.024541,0.078680,0.009858,0.004366,0.003558,-0.002014,0.074212,-0.487545,-1.015067,0.093283,-0.016720,-0.025839,1.000000,0.000022,0.000018,-0.000010,-0.999651,0.003140,-0.003212,-0.026028,-0.350108,0.377338,2.981813,0.998624,0.052018,-0.006586,-0.052058,0.998625,-0.006110,0.006259,0.006445,0.999960
04111,2,0,-72.0000,9.331112,-1.642916,-2.629691,0.005778,0.028252,0.020078,0.004064,0.001329,-0.006388,0.072581,-0.477584,-1.019157,0.093310,-0.016432,-0.026298,1.000000,0.000020,0.000007,-0.000032,-0.999651,0.003142,-0.003198,-0.026042,-0.350362,0.375690,2.983371,0.998623,0.052045,-0.006557,-0.052085,0.998624,-0.006115,0.006230,0.006448,0.999960
04112,2,0,-71.0000,9.328577,-1.671564,-2.583160,0.024878,0.078031,0.009862,0.004254,0.001284,0.002057,0.080602,-0.486725,-1.017148,0.093286,-0.016714,-0.025833,1.000000,0.000021,0.000006,0.000010,-0.999651,0.003103,-0.003206,-0.026043,-0.345952,0.376511,2.983497,0.998623,0.052047,-0.006571,-0.052087,0.998624,-0.006038,0.006248,0.006372,0.999960
04113,2,0,-66.0000,9.338889,-1.681774,-2.614308,-0.001464,0.068072,0.029730,0.005274,0.002190,-0.001613,0.078686,-0.486000,-1.014984,0.093388,-0.016818,-0.026145,1.000000,0.000026,0.000011,-0.000008,-0.999651,0.003082,-0.003201,-0.026055,-0.343548,0.375920,2.984912,0.998622,0.052072,-0.006561,-0.052111,0.998623,-0.005996,0.006240,0.006330,0.999961
04114,2,0,-64.0000,9.350897,-1.671169,-2.632500,-0.005890,0.048597,0.044276,0.005274,0.002190,-0.001614,0.068364,-0.483363,-1.013161,0.093509,-0.016712,-0.026326,1.000000,0.000026,0.000011,-0.000008,-0.999650,0.003053,-0.003197,-0.026066,-0.340229,0.375299,2.986167,0.998621,0.052094,-0.006550,-0.052133,0.998623,-0.005938,0.006232,0.006271,0.999961
04115,2,0,-62.0000,9.321071,-1.632945,-2.597422,0.032988,0.036637,0.000215,0.004558,-0.000514,0.000071,0.074672,-0.479681,-1.012392,0.093211,-0.016329,-0.025974,1.000000,0.000023,-0.000003,0.000000,-0.999650,0.003034,-0.003208,-0.026075,-0.337976,0.376531,2.987187,0.998620,0.052112,-0.006572,-0.052150,0.998622,-0.005899,0.006255,0.006233,0.999961
04116,2,0,-60.0000,9.354165,-1.630158,-2.606628,0.038263,0.029233,0.033632,-0.000112,-0.002274,0.004072,0.085089,-0.485238,-1.015273,0.093542,-0.016300,-0.026065,1.000000,-0.000001,-0.000011,0.000020,-0.999651,0.003004,-0.003236,-0.026055,-0.334486,0.379639,2.984942,0.998621,0.052072,-0.006626,-0.052111,0.998624,-0.005838,0.006313,0.006175,0.999961
04117,2,0,-58.0000,9.326962,-1.693025,-2.595405,0.003834,0.085816,0.015197,-0.000607,0.003597,0.003973,0.077306,-0.485285,-1.024291,0.093269,-0.016928,-0.025956,1.000000,-0.000003,0.000018,0.000020,-0.999651,0.002967,-0.003241,-0.026031,-0.330178,0.380068,2.982176,0.998624,0.052024,-0.006633,-0.052063,0.998627,-0.005763,0.006324,0.006100,0.999961
04118,2,0,-57.0000,9.315993,-1.695895,-2.635944,-0.032230,0.063665,0.016193,0.007697,-0.000114,0.001576,0.071924,-0.484625,-1.020740,0.093160,-0.016957,-0.026360,1.000000,0.000038,-0.000001,0.000008,-0.999651,0.002928,-0.003255,-0.026049,-0.325689,0.381591,2.984276,0.998622,0.052061,-0.006660,-0.052099,0.998626,-0.005684,0.006355,0.006023,0.999962
04119,2,0,-56.0000,9.328655,-1.672961,-2.581975,0.026111,0.075796,0.009877,0.007505,0.003958,-0.000510,0.071561,-0.486277,-1.014973,0.093286,-0.016729,-0.025822,1.000000,0.000038,0.000020,-0.000003,-0.999651,0.002894,-0.003246,-0.026069,-0.321858,0.380491,2.986574,0.998620,0.052101,-0.006641,-0.052138,0.998624,-0.005617,0.006339,0.005956,0.999962
04120,2,0,-55.0000,9.319339,-1.655233,-2.609580,0.011918,0.044290,0.005545,0.015187,-0.002479,0.003000,0.075947,-0.485316,-1.010753,0.093194,-0.016549,-0.026096,1.000000,0.000076,-0.000012,0.000015,-0.999649,0.002845,-0.003273,-0.026127,-0.316090,0.383398,2.993272,0.998613,0.052218,-0.006692,-0.052255,0.998619,-0.005517,0.006394,0.005859,0.999962
04121,2,0,-56.0000,9.342056,-1.642930,-2.587428,0.043739,0.046715,0.019093,0.007984,-0.004207,0.007883,0.074922,-0.487042,-1.008108,0.093422,-0.016425,-0.025873,1.000000,0.000040,-0.000021,0.000039,-0.999649,0.002799,-0.003321,-0.026145,-0.310720,0.388828,2.995321,0.998611,0.052253,-0.006786,-0.052290,0.998617,-0.005423,0.006494,0.005770,0.999962
04122,2,0,-56.0000,9.328291,-1.675089,-2.581910,0.026603,0.074725,0.009884,0.009816,-0.000618,0.006749,0.074578,-0.474869,-1.012104,0.093284,-0.016746,-0.025820,1.000000,0.000049,-0.000003,0.000034,-0.999648,0.002738,-0.003351,-0.026170,-0.303572,0.392053,2.998205,0.998608,0.052303,-0.006843,-0.052340,0.998615,-0.005298,0.006556,0.005649,0.999963
04123,2,0,-56.0000,9.329785,-1.655406,-2.568974,0.048690,0.065106,0.004556,0.012748,-0.002469,0.008102,0.082255,-0.487943,-1.011781,0.093299,-0.016549,-0.025690,1.000000,0.000064,-0.000012,0.000041,-0.999647,0.002679,-0.003393,-0.026209,-0.296728,0.396724,3.002656,0.998603,0.052381,-0.006924,-0.052417,0.998612,-0.005179,0.006643,0.005534,0.999963
04124,2,0,-57.0000,9.306696,-1.669542,-2.591273,0.017224,0.062036,-0.008988,0.008190,-0.001954,0.008032,0.078551,-0.489538,-1.018021,0.093068,-0.016691,-0.025913,1.000000,0.000041,-0.000010,0.000040,-0.999647,0.002620,-0.003433,-0.026220,-0.289807,0.401074,3.003908,0.998601,0.052403,-0.007000,-0.052439,0.998611,-0.005058,0.006725,0.005418,0.999963
04125,2,0,-59.0000,9.353279,-1.636222,-2.606005,0.039826,0.026328,0.033634,0.004748,-0.000555,0.008513,0.079170,-0.492127,-1.007438,0.093534,-0.016358,-0.026060,1.000000,0.000024,-0.000003,0.000043,-0.999647,0.002567,-0.003468,-0.026218,-0.283665,0.404924,3.003761,0.998601,0.052400,-0.007067,-0.052436,0.998612,-0.004951,0.006798,0.005314,0.999963
04126,2,0,-60.0000,9.330247,-1.650321,-2.628125,0.008352,0.023222,0.020089,0.001002,0.002643,0.010980,0.079162,-0.479789,-1.005381,0.093303,-0.016498,-0.026283,1.000000,0.000005,0.000013,0.000055,-0.999648,0.002493,-0.003495,-0.026196,-0.275128,0.407895,3.001177,0.998603,0.052355,-0.007119,-0.052390,0.998615,-0.004802,0.006858,0.005168,0.999963
04127,2,0,-62.0000,9.346422,-1.720973,-2.656944,-0.047456,0.063092,0.054960,0.007393,0.005716,0.009915,0.078328,-0.492414,-1.001258,0.093464,-0.017204,-0.026573,1.000000,0.000037,0.000029,0.000050,-0.999648,0.002414,-0.003508,-0.026200,-0.266028,0.409154,3.001675,0.998603,0.052364,-0.007141,-0.052398,0.998616,-0.004643,0.006888,0.005011,0.999964
04128,2,0,-64.0000,9.324234,-1.722621,-2.606267,-0.016149,0.091442,0.020560,0.014692,0.007422,0.009250,0.082346,-0.486422,-1.017717,0.093242,-0.017220,-0.026067,1.000000,0.000073,0.000037,0.000046,-0.999647,0.002314,-0.003513,-0.026236,-0.254467,0.409339,3.005858,0.998599,0.052437,-0.007144,-0.052469,0.998613,-0.004441,0.006901,0.004810,0.999965
04129,2,0,-65.0000,9.304667,-1.695686,-2.601917,-0.003803,0.069786,-0.003647,0.019042,0.004656,0.009168,0.080810,-0.488543,-1.014649,0.093047,-0.016950,-0.026023,1.000000,0.000095,0.000023,0.000046,-0.999645,0.002222,-0.003529,-0.026297,-0.243906,0.410906,3.012915,0.998592,0.052560,-0.007172,-0.052591,0.998607,-0.004257,0.006938,0.004628,0.999965
04130,2,0,-65.0000,9.318232,-1.665812,-2.606801,0.013678,0.040948,0.005557,0.016508,0.004689,0.010049,0.078096,-0.481954,-1.019670,0.093183,-0.016651,-0.026072,1.000000,0.000083,0.000023,0.000050,-0.999644,0.002123,-0.003547,-0.026343,-0.232505,0.412724,3.018180,0.998587,0.052651,-0.007203,-0.052682,0.998603,-0.004058,0.006980,0.004432,0.999966
04131,2,0,-65.0000,9.318137,-1.667344,-2.606159,0.013856,0.040692,0.005558,0.012953,0.003819,0.014601,0.072377,-0.493786,-1.011131,0.093182,-0.016665,-0.026064,1.000000,0.000065,0.000019,0.000073,-0.999644,0.002022,-0.003581,-0.026368,-0.220805,0.416354,3.021179,0.998584,0.052704,-0.007267,-0.052733,0.998601,-0.003854,0.007053,0.004231,0.999966
04132,2,0,-65.0000,9.317965,-1.668930,-2.605758,0.014016,0.040288,0.005559,0.007072,0.001199,0.013832,0.077226,-0.484024,-1.006034,0.093181,-0.016682,-0.026059,1.000000,0.000035,0.000006,0.000069,-0.999644,0.001933,-0.003623,-0.026370,-0.210438,0.420854,3.021412,0.998583,0.052708,-0.007345,-0.052736,0.998602,-0.003673,0.007141,0.004055,0.999966
04133,2,0,-65.0000,9.338972,-1.678096,-2.596132,0.023936,0.052063,0.024438,0.005143,0.001665,0.017099,0.073987,-0.490711,-1.012939,0.093391,-0.016772,-0.025963,1.000000,0.000026,0.000008,0.000085,-0.999644,0.001840,-0.003673,-0.026358,-0.199643,0.426278,3.019983,0.998584,0.052683,-0.007440,-0.052710,0.998604,-0.003484,0.007246,0.003872,0.999966
04134,2,0,-65.0000,9.347413,-1.710454,-2.639895,-0.024325,0.051320,0.049645,0.007999,0.006155,0.012292,0.082888,-0.483953,-1.010960,0.093474,-0.017098,-0.026403,1.000000,0.000040,0.000031,0.000061,-0.999644,0.001741,-0.003690,-0.026361,-0.188343,0.427920,3.020390,0.998583,0.052690,-0.007469,-0.052716,0.998604,-0.003287,0.007285,0.003676,0.999967
04135,2,0,-65.0000,9.329509,-1.663076,-2.622695,0.009920,0.020301,0.020094,0.013369,0.008325,0.014893,0.079174,-0.485194,-1.014629,0.093295,-0.016622,-0.026232,1.000000,0.000067,0.000042,0.000074,-0.999644,0.001626,-0.003706,-0.026384,-0.175115,0.429463,3.023151,0.998580,0.052738,-0.007495,-0.052762,0.998602,-0.003056,0.007324,0.003447,0.999967
04136,2,0,-66.0000,9.323457,-1.734591,-2.601099,-0.014732,0.088809,0.020587,0.009625,0.007491,0.011005,0.077027,-0.492967,-1.018552,0.093235,-0.017340,-0.026015,1.000000,0.000048,0.000037,0.000055,-0.999644,0.001528,-0.003715,-0.026391,-0.163798,0.430204,3.023905,0.998579,0.052751,-0.007508,-0.052774,0.998602,-0.002859,0.007347,0.003251,0.999968
04137,2,0,-62.0000,9.328430,-1.674186,-2.561715,0.051159,0.060450,0.004574,0.006163,0.006608,0.019775,0.083568,-0.490583,-1.007587,0.093285,-0.016732,-0.025621,1.000000,0.000031,0.000033,0.000099,-0.999644,0.001410,-0.003752,-0.026375,-0.150145,0.434068,3.022168,0.998581,0.052721,-0.007576,-0.052742,0.998605,-0.002620,0.007427,0.003016,0.999968
04138,2,0,-61.0000,9.282425,-1.702290,-2.605689,-0.011963,0.054711,-0.022504,0.008791,0.002522,0.016760,0.080938,-0.488131,-1.013406,0.092825,-0.017014,-0.026059,1.000000,0.000044,0.000013,0.000084,-0.999644,0.001302,-0.003797,-0.026380,-0.137640,0.438926,3.022785,0.998579,0.052732,-0.007661,-0.052751,0.998605,-0.002402,0.007523,0.002803,0.999968
04139,2,0,-60.0000,9.324704,-1.719199,-2.586298,0.007708,0.078509,0.015256,0.013161,0.006075,0.014739,0.073785,-0.492397,-1.012360,0.093248,-0.017183,-0.025867,1.000000,0.000066,0.000030,0.000074,-0.999643,0.001194,-0.003823,-0.026405,-0.125178,0.441504,3.025669,0.998576,0.052782,-0.007706,-0.052800,0.998603,-0.002185,0.007580,0.002588,0.999968
04140,2,0,-61.0000,9.321875,-1.749479,-2.539236,0.026852,0.128266,0.005081,0.014370,0.002906,0.013157,0.076391,-0.489379,-1.009357,0.093220,-0.017487,-0.025395,1.000000,0.000072,0.000015,0.000066,-0.999642,0.001091,-0.003856,-0.026441,-0.113263,0.445012,3.029817,0.998572,0.052854,-0.007767,-0.052871,0.998599,-0.001977,0.007651,0.002385,0.999968
04141,2,0,-63.0000,9.327779,-1.681137,-2.559532,0.051861,0.059106,0.004578,0.007674,0.001641,0.016206,0.080092,-0.485228,-1.017496,0.093279,-0.016803,-0.025597,1.000000,0.000038,0.000008,0.000081,-0.999642,0.000997,-0.003904,-0.026441,-0.102424,0.450177,3.029913,0.998571,0.052856,-0.007857,-0.052871,0.998600,-0.001788,0.007752,0.002200,0.999968
04142,2,0,-64.0000,9.280700,-1.716932,-2.544554,0.029612,0.094198,-0.038014,0.006558,0.000758,0.015656,0.083448,-0.497344,-1.006008,0.092808,-0.017161,-0.025446,1.000000,0.000033,0.000004,0.000078,-0.999642,0.000903,-0.003953,-0.026435,-0.091496,0.455517,3.029269,0.998571,0.052844,-0.007950,-0.052859,0.998601,-0.001597,0.007855,0.002015,0.999967
04143,2,0,-63.0000,9.287231,-1.770115,-2.601698,-0.040531,0.102983,-0.007456,0.007046,-0.005113,0.015762,0.077126,-0.492134,-1.003434,0.092874,-0.017693,-0.026015,1.000000,0.000035,-0.000026,0.000079,-0.999642,0.000831,-0.004027,-0.026439,-0.082951,0.463806,3.029731,0.998570,0.052852,-0.008095,-0.052866,0.998601,-0.001448,0.008007,0.001874,0.999966
04144,2,0,-61.0000,9.288620,-1.750848,-2.589016,-0.018454,0.093178,-0.012794,0.008789,-0.001513,0.010406,0.074968,-0.490077,-1.005812,0.092887,-0.017503,-0.025890,1.000000,0.000044,-0.000008,0.000052,-0.999641,0.000758,-0.004071,-0.026458,-0.074440,0.468627,3.031884,0.998567,0.052890,-0.008179,-0.052902,0.998599,-0.001299,0.008099,0.001730,0.999966
04145,2,0,-60.0000,9.279800,-1.721088,-2.545027,0.030144,0.093253,-0.038006,0.003813,-0.005499,0.010043,0.082087,-0.493247,-1.004537,0.092800,-0.017206,-0.025448,1.000000,0.000019,-0.000027,0.000050,-0.999641,0.000714,-0.004131,-0.026454,-0.069214,0.475336,3.031481,0.998566,0.052883,-0.008296,-0.052895,0.998599,-0.001208,0.008221,0.001645,0.999965
04146,2,0,-62.0000,9.309229,-1.760507,-2.580372,-0.008354,0.104525,0.006094,0.001580,-0.007266,0.008944,0.075452,-0.493672,-1.005199,0.093094,-0.017601,-0.025800,1.000000,0.000008,-0.000036,0.000045,-0.999641,0.000674,-0.004194,-0.026443,-0.064466,0.482452,3.030267,0.998566,0.052862,-0.008420,-0.052873,0.998601,-0.001125,0.008349,0.001569,0.999964
04147,2,0,-60.0000,9.296932,-1.771812,-2.562507,-0.003558,0.123343,-0.008429,-0.000443,-0.006782,0.007993,0.078485,-0.494316,-1.013121,0.092971,-0.017714,-0.025622,1.000000,-0.000002,-0.000034,0.000040,-0.999642,0.000648,-0.004253,-0.026423,-0.061330,0.489146,3.027977,0.998567,0.052822,-0.008537,-0.052833,0.998603,-0.001070,0.008469,0.001520,0.999963
04148,2,0,-62.0000,9.331553,-1.748892,-2.559293,0.023640,0.106494,0.019636,-0.002255,-0.004047,0.007189,0.082323,-0.492640,-1.015655,0.093317,-0.017486,-0.025591,1.000000,-0.000011,-0.000020,0.000036,-0.999642,0.000612,-0.004297,-0.026396,-0.057126,0.494114,3.024935,0.998570,0.052769,-0.008624,-0.052779,0.998606,-0.000997,0.008559,0.001451,0.999962
04149,2,0,-65.0000,9.278578,-1.724128,-2.547423,0.030831,0.091904,-0.037996,-0.001770,-0.009918,0.007295,0.076359,-0.484837,-0.997278,0.092788,-0.017238,-0.025469,1.000000,-0.000009,-0.000050,0.000036,-0.999642,0.000599,-0.004367,-0.026374,-0.055468,0.502107,3.022326,0.998571,0.052723,-0.008763,-0.052734,0.998608,-0.000968,0.008700,0.001429,0.999961
04150,2,0,-70.0000,9.318888,-1.760572,-2.542528,0.028611,0.124906,0.005119,-0.004003,-0.011685,0.006197,0.083809,-0.493166,-1.008436,0.093191,-0.017603,-0.025419,1.000000,-0.000020,-0.000058,0.000031,-0.999643,0.000592,-0.004441,-0.026341,-0.054374,0.510529,3.018574,0.998573,0.052658,-0.008910,-0.052668,0.998612,-0.000949,0.008848,0.001417,0.999960
04151,2,0,-78.0000,9.263345,-1.769134,-2.616118,-0.048887,0.088276,-0.026304,-0.000563,-0.013088,0.005714,0.074524,-0.492323,-1.009005,0.092636,-0.017689,-0.026155,1.000000,-0.000003,-0.000065,0.000029,-0.999643,0.000592,-0.004520,-0.026329,-0.054148,0.519565,3.017161,0.998573,0.052633,-0.009068,-0.052644,0.998613,-0.000945,0.009006,0.001421,0.999958
04152,2,0,-69.0000,9.308854,-1.743388,-2.572664,0.014589,0.093143,0.000766,0.007761,-0.010494,0.001376,0.078171,-0.487339,-1.002491,0.093090,-0.017432,-0.025722,1.000000,0.000039,-0.000052,0.000007,-0.999642,0.000581,-0.004576,-0.026361,-0.052686,0.525901,3.020842,0.998568,0.052697,-0.009179,-0.052708,0.998610,-0.000920,0.009117,0.001402,0.999957
04153,2,0,-66.0000,9.299241,-1.725700,-2.601585,0.000396,0.061798,-0.003592,0.001972,-0.013122,0.004829,0.090659,-0.488580,-1.013493,0.092995,-0.017254,-0.026010,1.000000,0.000010,-0.000066,0.000024,-0.999641,0.000580,-0.004652,-0.026362,-0.052413,0.534682,3.020946,0.998567,0.052699,-0.009332,-0.052710,0.998609,-0.000915,0.009271,0.001405,0.999956
04154,2,0,-63.0000,9.354900,-1.710174,-2.589823,0.037379,0.056973,0.043346,0.000644,-0.016257,0.004132,0.081033,-0.491052,-1.014464,0.093551,-0.017100,-0.025891,1.000000,0.000003,-0.000081,0.000021,-0.999641,0.000586,-0.004740,-0.026355,-0.052764,0.544781,3.020142,0.998566,0.052685,-0.009508,-0.052696,0.998610,-0.000921,0.009446,0.001421,0.999954
04155,2,0,-62.0000,9.329801,-1.744338,-2.626140,-0.015994,0.063454,0.035166,0.000159,-0.010386,0.004026,0.078122,-0.490910,-1.010948,0.093300,-0.017441,-0.026257,1.000000,0.000001,-0.000052,0.000020,-0.999641,0.000584,-0.004803,-0.026346,-0.052389,0.551993,3.019118,0.998566,0.052667,-0.009634,-0.052678,0.998611,-0.000914,0.009572,0.001421,0.999953
04156,2,0,-61.0000,9.274103,-1.747981,-2.568087,0.010169,0.098890,-0.032625,0.002182,-0.010870,0.004975,0.078816,-0.495705,-1.006552,0.092743,-0.017477,-0.025676,1.000000,0.000011,-0.000054,0.000025,-0.999641,0.000569,-0.004870,-0.026345,-0.050486,0.559620,3.019105,0.998564,0.052666,-0.009767,-0.052678,0.998611,-0.000881,0.009707,0.001394,0.999952
04157,2,0,-60.0000,9.330773,-1.724771,-2.615272,0.006251,0.053417,0.029818,0.003695,-0.011802,0.007757,0.078768,-0.495813,-1.013470,0.093310,-0.017244,-0.026148,1.000000,0.000018,-0.000059,0.000039,-0.999640,0.000551,-0.004950,-0.026350,-0.048171,0.568667,3.019584,0.998562,0.052675,-0.009925,-0.052686,0.998611,-0.000841,0.009867,0.001362,0.999950
04158,2,0,-60.0000,9.319379,-1.728054,-2.656934,-0.029863,0.031279,0.030809,0.008366,-0.010057,0.003753,0.082100,-0.490772,-1.009677,0.093195,-0.017278,-0.026565,1.000000,0.000042,-0.000050,0.000019,-0.999639,0.000528,-0.005010,-0.026384,-0.045329,0.575481,3.023548,0.998558,0.052744,-0.010044,-0.052754,0.998607,-0.000791,0.009988,0.001320,0.999949
04159,2,0,-61.0000,9.295121,-1.749550,-2.620812,-0.020447,0.069178,0.001774,0.009572,-0.013227,0.002171,0.080743,-0.497418,-1.015397,0.092953,-0.017493,-0.026203,1.000000,0.000048,-0.000066,0.000011,-0.999638,0.000526,-0.005080,-0.026425,-0.044911,0.583495,3.028202,0.998552,0.052825,-0.010184,-0.052835,0.998603,-0.000784,0.010128,0.001321,0.999948
04160,2,0,-62.0000,9.327880,-1.747352,-2.630956,-0.015134,0.061692,0.035179,0.013319,-0.012391,0.006049,0.083465,-0.492360,-1.010635,0.093281,-0.017469,-0.026305,1.000000,0.000067,-0.000062,0.000030,-0.999636,0.000493,-0.005157,-0.026479,-0.040849,0.592212,3.034436,0.998545,0.052933,-0.010336,-0.052943,0.998597,-0.000713,0.010284,0.001259,0.999946
04161,2,0,-62.0000,9.305352,-1.748182,-2.582062,0.016180,0.090215,0.000791,0.002991,-0.012223,0.001157,0.084594,-0.497691,-1.015368,0.093055,-0.017481,-0.025815,1.000000,0.000015,-0.000061,0.000006,-0.999635,0.000503,-0.005219,-0.026489,-0.041805,0.599426,3.035561,0.998542,0.052953,-0.010462,-0.052963,0.998596,-0.000730,0.010408,0.001283,0.999945
04162,2,0,-62.0000,9.304163,-1.761397,-2.655163,-0.046431,0.058386,0.021655,0.009273,-0.011422,0.004149,0.077880,-0.488327,-1.010099,0.093044,-0.017611,-0.026547,1.000000,0.000046,-0.000057,0.000021,-0.999634,0.000481,-0.005287,-0.026525,-0.039042,0.607136,3.039726,0.998537,0.053025,-0.010596,-0.053036,0.998592,-0.000681,0.010545,0.001242,0.999944
04163,2,0,-62.0000,9.314872,-1.759259,-2.615253,-0.009974,0.079838,0.020670,0.012826,-0.010562,-0.000405,0.085702,-0.491588,-1.010594,0.093150,-0.017591,-0.026149,1.000000,0.000064,-0.000053,-0.000002,-0.999632,0.000477,-0.005339,-0.026582,-0.038424,0.613070,3.046285,0.998530,0.053140,-0.010700,-0.053150,0.998586,-0.000671,0.010649,0.001238,0.999943
04164,2,0,-61.0000,9.281469,-1.762441,-2.606735,-0.014941,0.086512,-0.012727,0.013037,-0.008311,-0.000258,0.077739,-0.495951,-1.005688,0.092816,-0.017623,-0.026065,1.000000,0.000065,-0.000042,-0.000001,-0.999631,0.000459,-0.005382,-0.026636,-0.036196,0.617892,3.052516,0.998523,0.053248,-0.010784,-0.053258,0.998581,-0.000632,0.010735,0.001205,0.999942
04165,2,0,-61.0000,9.278579,-1.791259,-2.560963,0.004242,0.136420,-0.022869,0.014242,-0.011481,-0.001841,0.085889,-0.491095,-1.018358,0.092787,-0.017912,-0.025606,1.000000,0.000071,-0.000057,-0.000009,-0.999629,0.000462,-0.005433,-0.026703,-0.036242,0.623826,3.060149,0.998515,0.053381,-0.010888,-0.053391,0.998573,-0.000633,0.010838,0.001213,0.999941
04166,2,0,-61.0000,9.259743,-1.755330,-2.617549,-0.024353,0.073844,-0.031607,0.006853,-0.009122,0.000965,0.083333,-0.491183,-1.006740,0.092599,-0.017552,-0.026172,1.000000,0.000034,-0.000046,0.000005,-0.999628,0.000450,-0.005482,-0.026730,-0.034749,0.629396,3.063244,0.998511,0.053435,-0.010985,-0.053445,0.998571,-0.000606,0.010937,0.001193,0.999939
04167,2,0,-62.0000,9.279854,-1.770829,-2.549696,0.026490,0.126374,-0.028220,0.011610,-0.011433,-0.005172,0.079382,-0.493001,-1.017008,0.092800,-0.017709,-0.025493,1.000000,0.000058,-0.000057,-0.000026,-0.999626,0.000469,-0.005525,-0.026788,-0.036787,0.634279,3.069938,0.998504,0.053552,-0.011070,-0.053562,0.998564,-0.000642,0.011020,0.001234,0.999939
04168,2,0,-62.0000,9.289748,-1.781084,-2.582060,0.000148,0.116267,-0.008341,0.014937,-0.015096,-0.001593,0.081243,-0.494144,-1.009911,0.092899,-0.017810,-0.025815,1.000000,0.000075,-0.000075,-0.000008,-0.999623,0.000471,-0.005591,-0.026861,-0.036763,0.641941,3.078283,0.998494,0.053697,-0.011204,-0.053707,0.998557,-0.000642,0.011153,0.001242,0.999937
04169,2,0,-62.0000,9.313285,-1.760219,-2.620255,-0.008914,0.077851,0.020687,0.007450,-0.012727,-0.003001,0.076326,-0.490374,-1.005998,0.093134,-0.017603,-0.026197,1.000000,0.000037,-0.000064,-0.000015,-0.999622,0.000492,-0.005645,-0.026898,-0.038948,0.648118,3.082509,0.998489,0.053771,-0.011312,-0.053782,0.998552,-0.000680,0.011259,0.001287,0.999936
04170,2,0,-61.0000,9.313026,-1.760158,-2.621217,-0.008753,0.077439,0.020690,0.013633,-0.011914,-0.004230,0.080756,-0.488320,-1.011550,0.093131,-0.017602,-0.026208,1.000000,0.000068,-0.000060,-0.000021,-0.999620,0.000498,-0.005690,-0.026967,-0.039414,0.653369,3.090416,0.998481,0.053908,-0.011403,-0.053920,0.998545,-0.000688,0.011350,0.001302,0.999935
04171,2,0,-60.0000,9.306162,-1.708444,-2.565059,0.061726,0.068123,-0.009907,0.010194,-0.010511,-0.003743,0.086285,-0.493061,-1.017460,0.093063,-0.017085,-0.025647,1.000000,0.000051,-0.000053,-0.000019,-0.999618,0.000511,-0.005733,-0.027016,-0.040786,0.658248,3.096036,0.998475,0.054006,-0.011488,-0.054018,0.998540,-0.000712,0.011433,0.001331,0.999934
04172,2,0,-60.0000,9.295655,-1.703139,-2.666154,-0.015281,0.005247,0.006579,0.006122,-0.015860,-0.003697,0.081580,-0.493338,-1.010021,0.092958,-0.017032,-0.026655,1.000000,0.000031,-0.000079,-0.000018,-0.999617,0.000538,-0.005797,-0.027049,-0.043608,0.665678,3.099715,0.998470,0.054070,-0.011618,-0.054083,0.998536,-0.000761,0.011560,0.001388,0.999932
04173,2,0,-60.0000,9.312265,-1.759454,-2.624390,-0.008213,0.076530,0.020698,0.002185,-0.012635,-0.009659,0.087156,-0.494805,-1.011837,0.093123,-0.017599,-0.026238,1.000000,0.000011,-0.000063,-0.000048,-0.999616,0.000592,-0.005831,-0.027069,-0.049777,0.669754,3.102059,0.998467,0.054111,-0.011689,-0.054125,0.998534,-0.000869,0.011625,0.001500,0.999931
04174,2,0,-61.0000,9.301852,-1.748604,-2.594360,0.018482,0.085812,0.000827,-0.002085,-0.016190,-0.003415,0.075995,-0.487420,-0.999984,0.093020,-0.017488,-0.025936,1.000000,-0.000010,-0.000081,-0.000017,-0.999616,0.000631,-0.005897,-0.027065,-0.053962,0.677425,3.101558,0.998465,0.054102,-0.011823,-0.054117,0.998534,-0.000942,0.011755,0.001580,0.999930
04175,2,0,-62.0000,9.313453,-1.737399,-2.614523,0.014039,0.066475,0.015338,-0.001379,-0.017536,-0.011450,0.079773,-0.482652,-1.006608,0.093136,-0.017380,-0.026137,1.000000,-0.000007,-0.000088,-0.000057,-0.999615,0.000711,-0.005946,-0.027076,-0.063037,0.683314,3.102694,0.998463,0.054122,-0.011926,-0.054139,0.998533,-0.001100,0.011849,0.001744,0.999928
04176,2,0,-62.0000,9.311443,-1.757183,-2.628826,-0.007691,0.075470,0.020706,-0.001975,-0.013928,-0.007486,0.075368,-0.493952,-1.006970,0.093116,-0.017576,-0.026282,1.000000,-0.000010,-0.000070,-0.000037,-0.999615,0.000761,-0.005990,-0.027072,-0.068594,0.688526,3.102211,0.998462,0.054113,-0.012017,-0.054132,0.998533,-0.001197,0.011934,0.001846,0.999927
04177,2,0,-62.0000,9.301092,-1.746117,-2.598756,0.019003,0.084916,0.000833,-0.001466,-0.013481,-0.009322,0.084301,-0.489851,-1.007569,0.093012,-0.017466,-0.025981,1.000000,-0.000007,-0.000067,-0.000047,-0.999615,0.000823,-0.006028,-0.027075,-0.075527,0.693114,3.102595,0.998461,0.054120,-0.012097,-0.054140,0.998532,-0.001318,0.012008,0.001971,0.999926
04178,2,0,-62.0000,9.334820,-1.734727,-2.668459,-0.016596,0.036634,0.049726,0.004817,-0.012676,-0.006338,0.080914,-0.489932,-1.008777,0.093349,-0.017350,-0.026679,1.000000,0.000024,-0.000063,-0.000032,-0.999614,0.000852,-0.006071,-0.027106,-0.078786,0.698088,3.106098,0.998457,0.054181,-0.012184,-0.054202,0.998529,-0.001375,0.012091,0.002033,0.999925
04179,2,0,-61.0000,9.287798,-1.768280,-2.654567,-0.038831,0.071942,0.007193,0.008765,-0.013629,-0.008666,0.083407,-0.487696,-1.012414,0.092879,-0.017686,-0.026540,1.000000,0.000044,-0.000068,-0.000043,-0.999612,0.000896,-0.006112,-0.027158,-0.083578,0.702957,3.111971,0.998450,0.054283,-0.012269,-0.054305,0.998523,-0.001459,0.012171,0.002123,0.999924
04180,2,0,-61.0000,9.331880,-1.762114,-2.624132,0.002778,0.086140,0.039606,0.010390,-0.012297,-0.009955,0.081232,-0.490944,-1.007083,0.093320,-0.017624,-0.026237,1.000000,0.000052,-0.000061,-0.000050,-0.999610,0.000931,-0.006144,-0.027216,-0.087443,0.706705,3.118594,0.998443,0.054399,-0.012334,-0.054422,0.998517,-0.001526,0.012233,0.002195,0.999923
04181,2,0,-61.0000,9.277313,-1.756918,-2.625190,-0.011965,0.080993,-0.012676,0.014439,-0.013259,-0.008067,0.083553,-0.483262,-1.006555,0.092774,-0.017571,-0.026247,1.000000,0.000072,-0.000066,-0.000040,-0.999608,0.000962,-0.006186,-0.027293,-0.090808,0.711586,3.127432,0.998434,0.054553,-0.012419,-0.054576,0.998508,-0.001585,0.012314,0.002260,0.999922
04182,2,0,-60.0000,9.311965,-1.732896,-2.622797,0.015249,0.064115,0.015352,0.010579,-0.016358,-0.007873,0.079013,-0.488937,-1.018171,0.093121,-0.017331,-0.026221,1.000000,0.000053,-0.000082,-0.000039,-0.999606,0.000999,-0.006240,-0.027351,-0.094880,0.717950,3.134081,0.998426,0.054668,-0.012530,-0.054693,0.998502,-0.001656,0.012421,0.002339,0.999920
04183,2,0,-62.0000,9.313508,-1.711527,-2.611215,0.037317,0.054474,0.009982,0.013218,-0.014132,-0.012835,0.083825,-0.491325,-1.017685,0.093136,-0.017120,-0.026107,1.000000,0.000066,-0.000071,-0.000064,-0.999603,0.001053,-0.006272,-0.027430,-0.100902,0.721782,3.143052,0.998417,0.054825,-0.012597,-0.054851,0.998493,-0.001761,0.012482,0.002449,0.999919
04184,2,0,-64.0000,9.262979,-1.786506,-2.622915,-0.028704,0.108426,-0.021799,0.013722,-0.015952,-0.006386,0.078393,-0.484790,-1.005901,0.092631,-0.017866,-0.026223,1.000000,0.000069,-0.000080,-0.000032,-0.999601,0.001079,-0.006329,-0.027504,-0.103608,0.728374,3.151501,0.998407,0.054972,-0.012712,-0.054999,0.998485,-0.001808,0.012594,0.002504,0.999918
04185,2,0,-66.0000,9.315408,-1.811374,-2.636710,-0.035485,0.122443,0.035860,0.019399,-0.013313,-0.014077,0.090310,-0.490290,-1.005932,0.093155,-0.018118,-0.026363,1.000000,0.000097,-0.000067,-0.000070,-0.999598,0.001125,-0.006354,-0.027613,-0.108816,0.731435,3.163948,0.998394,0.055189,-0.012766,-0.055217,0.998473,-0.001899,0.012641,0.002601,0.999917
04186,2,0,-66.0000,9.344258,-1.856863,-2.612966,-0.033006,0.174484,0.064516,0.035708,-0.012627,-0.018889,0.080765,-0.491207,-1.007188,0.093442,-0.018573,-0.026127,1.000000,0.000179,-0.000063,-0.000094,-0.999593,0.001156,-0.006364,-0.027801,-0.112159,0.732670,3.185548,0.998373,0.055565,-0.012787,-0.055595,0.998452,-0.001957,0.012659,0.002665,0.999916
04187,2,0,-66.0000,9.270369,-1.952349,-2.586522,-0.089756,0.266759,0.003742,0.056469,-0.012440,-0.027879,0.085782,-0.486547,-1.016782,0.092703,-0.019529,-0.025865,1.000000,0.000282,-0.000062,-0.000139,-0.999584,0.001196,-0.006349,-0.028104,-0.116583,0.731096,3.220180,0.998340,0.056169,-0.012760,-0.056199,0.998418,-0.002035,0.012625,0.002748,0.999917
04188,2,0,-71.0000,9.252840,-1.901969,-2.570518,-0.055576,0.235602,-0.025885,0.063541,-0.017019,-0.035091,0.074144,-0.488836,-1.016071,0.092527,-0.019028,-0.025703,1.000000,0.000318,-0.000085,-0.000175,-0.999574,0.001258,-0.006333,-0.028451,-0.123484,0.729472,3.259969,0.998301,0.056862,-0.012731,-0.056894,0.998378,-0.002155,0.012588,0.002876,0.999917
04189,2,0,-63.0000,9.308158,-1.897218,-2.630192,-0.081380,0.199457,0.041892,0.083376,-0.021759,-0.042570,0.083695,-0.485113,-1.009940,0.093080,-0.018981,-0.026300,1.000000,0.000417,-0.000109,-0.000213,-0.999561,0.001338,-0.006316,-0.028908,-0.132386,0.727910,3.312349,0.998249,0.057775,-0.012704,-0.057808,0.998325,-0.002310,0.012549,0.003041,0.999917
04190,2,0,-63.0000,9.299055,-1.877290,-2.658408,-0.095615,0.167998,0.037511,0.085101,-0.018150,-0.047977,0.079577,-0.488452,-1.014504,0.092988,-0.018784,-0.026584,1.000000,0.000426,-0.000091,-0.000240,-0.999548,0.001420,-0.006269,-0.029377,-0.141592,0.722828,3.366000,0.998195,0.058709,-0.012615,-0.058745,0.998270,-0.002471,0.012449,0.003208,0.999917
04191,2,0,-64.0000,9.326059,-1.820119,-2.610766,-0.019995,0.151557,0.040279,0.095030,-0.014189,-0.053701,0.082185,-0.488920,-1.005596,0.093258,-0.018214,-0.026110,1.000000,0.000475,-0.000071,-0.000269,-0.999533,0.001505,-0.006190,-0.029898,-0.151231,0.714213,3.425690,0.998136,0.059749,-0.012465,-0.059787,0.998208,-0.002639,0.012285,0.003380,0.999919
04192,2,0,-65.0000,9.322366,-1.736973,-2.600558,0.031435,0.091912,0.019761,0.086808,-0.018568,-0.059784,0.082110,-0.490805,-1.015329,0.093221,-0.017386,-0.026004,1.000000,0.000434,-0.000093,-0.000299,-0.999518,0.001631,-0.006112,-0.030390,-0.165561,0.705782,3.482075,0.998078,0.060732,-0.012318,-0.060772,0.998148,-0.002889,0.012120,0.003632,0.999920
04193,2,0,-64.0000,9.293885,-1.687533,-2.625375,0.029310,0.039223,-0.008899,0.079925,-0.015763,-0.058826,0.079751,-0.493608,-1.004032,0.092936,-0.016892,-0.026253,1.000000,0.000400,-0.000079,-0.000294,-0.999504,0.001764,-0.006025,-0.030848,-0.180802,0.696350,3.534458,0.998024,0.061644,-0.012153,-0.061687,0.998091,-0.003155,0.011936,0.003899,0.999921
04194,2,0,-63.0000,9.284337,-1.673622,-2.594320,0.056004,0.048497,-0.028775,0.068071,-0.016964,-0.058183,0.073155,-0.491352,-1.009330,0.092841,-0.016754,-0.025941,1.000000,0.000340,-0.000085,-0.000291,-0.999492,0.001908,-0.005944,-0.031251,-0.197290,0.687643,3.580518,0.997976,0.062447,-0.012001,-0.062492,0.998040,-0.003443,0.011763,0.004186,0.999922
04195,2,0,-63.0000,9.277031,-1.631401,-2.610197,0.063656,0.007786,-0.038549,0.051973,-0.015427,-0.053198,0.076581,-0.490161,-1.015068,0.092768,-0.016332,-0.026099,1.000000,0.000260,-0.000077,-0.000266,-0.999482,0.002063,-0.005870,-0.031568,-0.215018,0.679758,3.616798,0.997938,0.063079,-0.011864,-0.063127,0.997998,-0.003753,0.011603,0.004494,0.999923
04196,2,0,-64.0000,9.289798,-1.610351,-2.688910,0.018264,-0.052482,-0.008570,0.047929,-0.016721,-0.046789,0.076580,-0.492694,-1.008135,0.092896,-0.016119,-0.026885,1.000000,0.000240,-0.000084,-0.000234,-0.999473,0.002194,-0.005817,-0.031861,-0.230015,0.674309,3.650385,0.997902,0.063664,-0.011769,-0.063715,0.997960,-0.004014,0.011489,0.004756,0.999923
04197,2,0,-66.0000,9.299701,-1.624853,-2.661555,0.032855,-0.021670,-0.004176,0.039521,-0.013028,-0.048580,0.070641,-0.493490,-1.012106,0.092995,-0.016266,-0.026613,1.000000,0.000198,-0.000065,-0.000243,-0.999465,0.002343,-0.005746,-0.032111,-0.247229,0.666680,3.678965,0.997872,0.064162,-0.011635,-0.064215,0.997927,-0.004315,0.011335,0.005053,0.999923
04198,2,0,-66.0000,9.311921,-1.611296,-2.680637,0.028383,-0.041189,0.010319,0.031029,-0.007529,-0.039929,0.072101,-0.482854,-1.007189,0.093117,-0.016127,-0.026805,1.000000,0.000155,-0.000038,-0.000200,-0.999459,0.002448,-0.005673,-0.032311,-0.259435,0.658854,3.701752,0.997848,0.064559,-0.011499,-0.064614,0.997900,-0.004528,0.011182,0.005261,0.999924
04199,2,0,-66.0000,9.324069,-1.598110,-2.699712,0.023933,-0.060535,0.024813,0.016756,-0.008741,-0.034107,0.077522,-0.484297,-1.016915,0.093239,-0.015995,-0.026994,1.000000,0.000084,-0.000044,-0.000171,-0.999455,0.002566,-0.005623,-0.032430,-0.272968,0.653566,3.715347,0.997833,0.064795,-0.011407,-0.064853,0.997883,-0.004764,0.011074,0.005493,0.999924
04200,2,0,-66.0000,9.256517,-1.622622,-2.694002,-0.008096,-0.037285,-0.036583,0.017679,-0.006037,-0.027361,0.084476,-0.485838,-1.015586,0.092564,-0.016237,-0.026939,1.000000,0.000088,-0.000030,-0.000137,-0.999451,0.002641,-0.005580,-0.032539,-0.281703,0.648950,3.727827,0.997820,0.065013,-0.011326,-0.065072,0.997868,-0.004916,0.010982,0.005643,0.999924
04201,2,0,-66.0000,9.271539,-1.711160,-2.735373,-0.085659,0.012008,0.003844,0.017067,-0.006482,-0.029749,0.074440,-0.483441,-1.018992,0.092714,-0.017123,-0.027352,1.000000,0.000085,-0.000032,-0.000149,-0.999448,0.002735,-0.005533,-0.032652,-0.292527,0.643918,3.740725,0.997806,0.065237,-0.011238,-0.065298,0.997853,-0.005105,0.010881,0.005828,0.999924
04202,2,0,-66.0000,9.322781,-1.619517,-2.653811,0.043515,-0.011403,0.014711,0.015050,-0.001953,-0.024339,0.077562,-0.482578,-1.012306,0.093226,-0.016205,-0.026538,1.000000,0.000075,-0.000010,-0.000122,-0.999445,0.002792,-0.005482,-0.032739,-0.299160,0.638374,3.750734,0.997796,0.065412,-0.011142,-0.065473,0.997841,-0.005221,0.010776,0.005939,0.999924
04203,2,0,-66.0000,9.309698,-1.648863,-2.647745,0.026444,0.016830,0.005602,0.006343,-0.002778,-0.022162,0.075992,-0.486145,-1.002038,0.093096,-0.016498,-0.026477,1.000000,0.000032,-0.000014,-0.000111,-0.999443,0.002862,-0.005441,-0.032788,-0.307402,0.633861,3.756299,0.997791,0.065509,-0.011063,-0.065571,0.997833,-0.005365,0.010687,0.006078,0.999924
04204,2,0,-67.0000,9.330803,-1.661556,-2.579151,0.077346,0.069160,0.009019,-0.001048,-0.000462,-0.019304,0.072260,-0.486351,-1.013917,0.093306,-0.016625,-0.025791,1.000000,-0.000005,-0.000002,-0.000097,-0.999443,0.002920,-0.005397,-0.032793,-0.314182,0.629040,3.756837,0.997791,0.065518,-0.010979,-0.065581,0.997832,-0.005483,0.010596,0.006191,0.999925
04205,2,0,-68.0000,9.351374,-1.680563,-2.641789,0.024504,0.049509,0.048777,-0.006519,0.001384,-0.019737,0.075325,-0.489979,-1.011064,0.093512,-0.016816,-0.026418,1.000000,-0.000033,0.000007,-0.000099,-0.999444,0.002991,-0.005344,-0.032774,-0.322459,0.623225,3.754642,0.997795,0.065480,-0.010877,-0.065544,0.997834,-0.005628,0.010485,0.006328,0.999925
04206,2,0,-68.0000,9.320282,-1.660674,-2.619865,0.041392,0.046834,0.010005,-0.012193,0.000979,-0.020311,0.071944,-0.482197,-1.010990,0.093201,-0.016618,-0.026198,1.000000,-0.000061,0.000005,-0.000102,-0.999445,0.003066,-0.005289,-0.032731,-0.331272,0.617273,3.749692,0.997801,0.065394,-0.010773,-0.065459,0.997839,-0.005781,0.010372,0.006474,0.999925
04207,2,0,-66.0000,9.332314,-1.648274,-2.638831,0.036942,0.027485,0.024497,-0.017346,-0.001226,-0.014408,0.073519,-0.481819,-1.010989,0.093322,-0.016492,-0.026386,1.000000,-0.000087,-0.000006,-0.000072,-0.999448,0.003139,-0.005261,-0.032656,-0.339860,0.614323,3.741036,0.997812,0.065243,-0.010722,-0.065309,0.997847,-0.005931,0.010312,0.006619,0.999925
04208,2,0,-65.0000,9.308119,-1.680590,-2.673295,-0.016444,0.033932,0.016379,-0.019593,0.009597,-0.019422,0.078579,-0.480811,-1.019571,0.093078,-0.016818,-0.026736,1.000000,-0.000098,0.000048,-0.000097,-0.999451,0.003200,-0.005173,-0.032566,-0.347251,0.604457,3.730647,0.997825,0.065062,-0.010550,-0.065129,0.997858,-0.006060,0.010133,0.006734,0.999926
04209,2,0,-64.0000,9.308551,-1.678517,-2.673095,-0.016263,0.033679,0.016381,-0.023120,0.002425,-0.012861,0.073604,-0.479647,-1.009990,0.093084,-0.016794,-0.026730,1.000000,-0.000116,0.000012,-0.000064,-0.999455,0.003267,-0.005134,-0.032458,-0.355119,0.600197,3.718274,0.997840,0.064847,-0.010475,-0.064914,0.997872,-0.006198,0.010051,0.006864,0.999926
04210,2,0,-63.0000,9.295582,-1.707804,-2.666889,-0.033329,0.061803,0.007283,-0.019182,0.007798,-0.017181,0.068682,-0.489113,-1.010954,0.092953,-0.017089,-0.026671,1.000000,-0.000096,0.000039,-0.000086,-0.999458,0.003324,-0.005061,-0.032365,-0.361991,0.591981,3.707560,0.997854,0.064661,-0.010332,-0.064728,0.997883,-0.006318,0.009901,0.006973,0.999927
04211,2,0,-64.0000,9.297642,-1.684928,-2.654003,-0.011270,0.052153,0.001894,-0.019886,0.005104,-0.015479,0.073366,-0.484641,-1.019156,0.092974,-0.016859,-0.026541,1.000000,-0.000099,0.000026,-0.000077,-0.999461,0.003389,-0.005004,-0.032274,-0.369678,0.585629,3.697098,0.997867,0.064478,-0.010221,-0.064546,0.997894,-0.006452,0.009783,0.007098,0.999927
04212,2,0,-66.0000,9.295923,-1.711117,-2.607030,0.007946,0.101907,-0.008185,-0.019686,0.007356,-0.015341,0.073773,-0.483819,-1.016207,0.092957,-0.017121,-0.026072,1.000000,-0.000098,0.000037,-0.000077,-0.999464,0.003440,-0.004936,-0.032185,-0.375764,0.578035,3.686888,0.997880,0.064301,-0.010088,-0.064369,0.997905,-0.006558,0.009646,0.007193,0.999928
04213,2,0,-66.0000,9.288306,-1.670766,-2.622239,0.015577,0.061199,-0.017982,-0.020891,0.004214,-0.011793,0.075229,-0.479789,-1.017452,0.092882,-0.016716,-0.026223,1.000000,-0.000104,0.000021,-0.000059,-0.999467,0.003494,-0.004893,-0.032085,-0.382207,0.573241,3.675404,0.997893,0.064101,-0.010005,-0.064169,0.997917,-0.006670,0.009556,0.007298,0.999928
04214,2,0,-66.0000,9.290184,-1.648283,-2.609670,0.037628,0.051424,-0.023373,-0.021091,0.001965,-0.011936,0.071045,-0.488546,-1.010953,0.092901,-0.016491,-0.026096,1.000000,-0.000105,0.000010,-0.000060,-0.999470,0.003549,-0.004858,-0.031983,-0.388696,0.569403,3.663702,0.997907,0.063897,-0.009938,-0.063966,0.997929,-0.006784,0.009484,0.007405,0.999928
04215,2,0,-66.0000,9.278718,-1.657120,-2.591011,0.042441,0.070268,-0.037860,-0.022309,0.005128,-0.010351,0.073511,-0.484631,-1.005594,0.092786,-0.016579,-0.025911,1.000000,-0.000112,0.000026,-0.000052,-0.999474,0.003598,-0.004815,-0.031873,-0.394469,0.564604,3.651143,0.997922,0.063678,-0.009854,-0.063748,0.997942,-0.006884,0.009395,0.007498,0.999928
04216,2,0,-66.0000,9.323230,-1.649366,-2.559867,0.084073,0.084371,-0.005458,-0.030301,0.000687,-0.007923,0.076912,-0.485242,-1.006703,0.093232,-0.016501,-0.025596,1.000000,-0.000152,0.000003,-0.000040,-0.999478,0.003653,-0.004795,-0.031729,-0.400977,0.562497,3.634603,0.997941,0.063390,-0.009817,-0.063460,0.997960,-0.006998,0.009354,0.007607,0.999927
04217,2,0,-66.0000,9.302596,-1.633035,-2.628985,0.033513,0.031408,-0.008884,-0.036888,0.001642,-0.008906,0.072719,-0.487009,-1.009188,0.093025,-0.016339,-0.026288,1.000000,-0.000184,0.000008,-0.000045,-0.999484,0.003728,-0.004770,-0.031552,-0.409774,0.559767,3.614205,0.997964,0.063035,-0.009770,-0.063106,0.997981,-0.007151,0.009299,0.007753,0.999927
04218,2,0,-66.0000,9.324103,-1.638677,-2.620119,0.043481,0.042951,0.010014,-0.041340,0.002127,-0.004717,0.076462,-0.481772,-1.016827,0.093240,-0.016394,-0.026199,1.000000,-0.000207,0.000011,-0.000024,-0.999490,0.003785,-0.004753,-0.031348,-0.416403,0.557959,3.590841,0.997989,0.062628,-0.009738,-0.062700,0.998006,-0.007267,0.009264,0.007863,0.999926
04219,2,0,-68.0000,9.321095,-1.678624,-2.645902,-0.000091,0.061498,0.020807,-0.042865,0.003047,-0.007512,0.076409,-0.489133,-1.013471,0.093210,-0.016795,-0.026457,1.000000,-0.000214,0.000015,-0.000038,-0.999496,0.003860,-0.004725,-0.031139,-0.425242,0.554950,3.566847,0.998016,0.062210,-0.009686,-0.062283,0.998031,-0.007421,0.009205,0.008010,0.999926
04220,2,0,-66.0000,9.319722,-1.697683,-2.658931,-0.021790,0.070499,0.026206,-0.043169,0.004853,-0.005531,0.062330,-0.479668,-1.013763,0.093196,-0.016985,-0.026588,1.000000,-0.000216,0.000024,-0.000028,-0.999503,0.003915,-0.004695,-0.030924,-0.431847,0.551595,3.542210,0.998043,0.061781,-0.009627,-0.061855,0.998057,-0.007537,0.009143,0.008117,0.999925
04221,2,0,-66.0000,9.318390,-1.716683,-2.671880,-0.043485,0.079647,0.031606,-0.038718,0.004377,-0.009732,0.069296,-0.479351,-1.018857,0.093182,-0.017177,-0.026718,1.000000,-0.000194,0.000022,-0.000049,-0.999509,0.003989,-0.004655,-0.030737,-0.440551,0.547271,3.520691,0.998067,0.061406,-0.009552,-0.061480,0.998079,-0.007689,0.009061,0.008261,0.999925
04222,2,0,-65.0000,9.321860,-1.673422,-2.646502,0.000396,0.060476,0.020813,-0.031121,0.008367,-0.006077,0.074900,-0.475577,-1.016318,0.093217,-0.016741,-0.026466,1.000000,-0.000156,0.000042,-0.000030,-0.999514,0.004021,-0.004608,-0.030579,-0.444387,0.541850,3.502645,0.998087,0.061092,-0.009457,-0.061166,0.998097,-0.007756,0.008965,0.008319,0.999925
04223,2,0,-65.0000,9.267712,-1.667951,-2.646326,-0.014392,0.055420,-0.031465,-0.035269,0.007048,-0.003878,0.070875,-0.484055,-1.007817,0.092676,-0.016686,-0.026464,1.000000,-0.000176,0.000035,-0.000019,-0.999519,0.004059,-0.004574,-0.030398,-0.448998,0.538045,3.481871,0.998110,0.060730,-0.009391,-0.060804,0.998119,-0.007836,0.008897,0.008392,0.999925
04224,2,0,-65.0000,9.279721,-1.656231,-2.664808,-0.018866,0.035941,-0.016981,-0.033042,0.008832,-0.002795,0.074547,-0.479155,-1.015432,0.092796,-0.016568,-0.026649,1.000000,-0.000165,0.000044,-0.000014,-0.999525,0.004079,-0.004535,-0.030223,-0.451459,0.533573,3.461782,0.998132,0.060380,-0.009312,-0.060454,0.998140,-0.007879,0.008819,0.008427,0.999926
04225,2,0,-65.0000,9.325831,-1.628079,-2.620576,0.044665,0.040780,0.010018,-0.043778,0.008470,-0.001587,0.075817,-0.484132,-1.017130,0.093257,-0.016287,-0.026206,1.000000,-0.000219,0.000042,-0.000008,-0.999531,0.004117,-0.004501,-0.029997,-0.456155,0.529745,3.435894,0.998160,0.059929,-0.009246,-0.060003,0.998166,-0.007961,0.008752,0.008501,0.999926
04226,2,0,-65.0000,9.346393,-1.647483,-2.683199,-0.008185,0.021001,0.049783,-0.041139,0.008445,0.001740,0.074399,-0.476646,-1.015384,0.093463,-0.016480,-0.026833,1.000000,-0.000206,0.000042,0.000009,-0.999538,0.004133,-0.004477,-0.029778,-0.458103,0.526861,3.410775,0.998186,0.059492,-0.009195,-0.059566,0.998192,-0.007995,0.008703,0.008528,0.999926
04227,2,0,-64.0000,9.289448,-1.678340,-2.577169,0.037049,0.106848,-0.028021,-0.040636,0.008900,-0.000112,0.077933,-0.478754,-1.017306,0.092893,-0.016789,-0.025772,1.000000,-0.000203,0.000045,-0.000001,-0.999544,0.004160,-0.004446,-0.029565,-0.461423,0.523290,3.386336,0.998212,0.059066,-0.009133,-0.059140,0.998217,-0.008053,0.008641,0.008579,0.999926
04228,2,0,-63.0000,9.309975,-1.697975,-2.639808,-0.015794,0.087088,0.011747,-0.031107,0.006114,0.002217,0.079801,-0.482760,-1.013293,0.093099,-0.016983,-0.026398,1.000000,-0.000156,0.000031,0.000011,-0.999549,0.004165,-0.004433,-0.029391,-0.462103,0.521757,3.366408,0.998233,0.058719,-0.009106,-0.058793,0.998238,-0.008065,0.008617,0.008586,0.999926
04229,2,0,-62.0000,9.311644,-1.676490,-2.627188,0.006257,0.077429,0.006346,-0.028470,0.002048,-0.000824,0.071253,-0.479317,-1.007169,0.093116,-0.016769,-0.026270,1.000000,-0.000142,0.000010,-0.000004,-0.999554,0.004194,-0.004429,-0.029242,-0.465532,0.521332,3.349333,0.998251,0.058421,-0.009099,-0.058495,0.998255,-0.008125,0.008608,0.008643,0.999926
04230,2,0,-65.0000,9.298438,-1.707000,-2.621413,-0.010808,0.105544,-0.002726,-0.030603,0.006569,0.000366,0.078693,-0.486971,-1.018838,0.092984,-0.017074,-0.026215,1.000000,-0.000153,0.000033,0.000002,-0.999559,0.004202,-0.004409,-0.029077,-0.466683,0.518970,3.330364,0.998270,0.058091,-0.009058,-0.058165,0.998274,-0.008145,0.008569,0.008657,0.999926
04231,2,0,-63.0000,9.320011,-1.713284,-2.611967,-0.000821,0.117234,0.016177,-0.027675,0.007019,-0.006615,0.073394,-0.481613,-1.010948,0.093199,-0.017140,-0.026121,1.000000,-0.000138,0.000035,-0.000033,-0.999563,0.004240,-0.004368,-0.028935,-0.471161,0.514363,3.314148,0.998287,0.057808,-0.008977,-0.057882,0.998290,-0.008223,0.008487,0.008728,0.999926
04232,2,0,-64.0000,9.275983,-1.718316,-2.643233,-0.042139,0.102352,-0.016214,-0.024626,0.005174,-0.001038,0.072171,-0.486294,-1.015942,0.092759,-0.017187,-0.026433,1.000000,-0.000123,0.000026,-0.000005,-0.999567,0.004248,-0.004350,-0.028804,-0.472214,0.512263,3.299067,0.998303,0.057545,-0.008941,-0.057619,0.998305,-0.008241,0.008451,0.008742,0.999926
04233,2,0,-64.0000,9.300646,-1.683178,-2.608373,0.011590,0.095227,-0.008121,-0.017337,0.002884,-0.008116,0.074122,-0.491911,-1.009388,0.093005,-0.016838,-0.026084,1.000000,-0.000087,0.000014,-0.000041,-0.999569,0.004286,-0.004323,-0.028717,-0.476702,0.509239,3.289090,0.998313,0.057372,-0.008888,-0.057446,0.998314,-0.008320,0.008395,0.008816,0.999926
04234,2,0,-63.0000,9.297128,-1.731244,-2.574612,0.008956,0.154355,-0.012763,-0.018755,0.003793,-0.006673,0.079314,-0.488303,-1.013134,0.092970,-0.017318,-0.025746,1.000000,-0.000094,0.000019,-0.000033,-0.999572,0.004309,-0.004294,-0.028628,-0.479518,0.506000,3.278921,0.998324,0.057194,-0.008831,-0.057269,0.998324,-0.008369,0.008338,0.008860,0.999926
04235,2,0,-63.0000,9.253138,-1.735948,-2.605987,-0.032353,0.139627,-0.045154,-0.014911,0.002884,-0.013251,0.083771,-0.489210,-1.015357,0.092530,-0.017368,-0.026060,1.000000,-0.000075,0.000014,-0.000066,-0.999574,0.004363,-0.004253,-0.028559,-0.485913,0.501408,3.271047,0.998333,0.057057,-0.008751,-0.057132,0.998331,-0.008480,0.008253,0.008966,0.999926
04236,2,0,-65.0000,9.310987,-1.697019,-2.580413,0.026558,0.125159,-0.003685,-0.012883,0.002413,-0.012306,0.079584,-0.489743,-1.015276,0.093109,-0.016978,-0.025804,1.000000,-0.000064,0.000012,-0.000062,-0.999575,0.004403,-0.004216,-0.028501,-0.490618,0.497350,3.264393,0.998340,0.056941,-0.008680,-0.057016,0.998337,-0.008562,0.008178,0.009043,0.999926
04237,2,0,-65.0000,9.311851,-1.687697,-2.639782,-0.014220,0.084163,0.011775,-0.012578,0.000617,-0.014300,0.077006,-0.481822,-1.023680,0.093117,-0.016885,-0.026397,1.000000,-0.000063,0.000003,-0.000071,-0.999577,0.004464,-0.004182,-0.028447,-0.497729,0.493540,3.258158,0.998347,0.056833,-0.008614,-0.056907,0.998342,-0.008687,0.008106,0.009162,0.999925
04238,2,0,-66.0000,9.290799,-1.678843,-2.649027,-0.023855,0.071818,-0.007124,-0.014104,0.005572,-0.010715,0.076875,-0.480035,-1.008231,0.092906,-0.016795,-0.026492,1.000000,-0.000071,0.000028,-0.000054,-0.999579,0.004492,-0.004136,-0.028378,-0.501144,0.488365,3.250266,0.998355,0.056695,-0.008523,-0.056770,0.998349,-0.008746,0.008014,0.009216,0.999925
04239,2,0,-65.0000,9.294846,-1.628104,-2.682489,-0.020899,0.012007,-0.002486,-0.014713,0.005137,-0.013108,0.075727,-0.482190,-1.009654,0.092947,-0.016289,-0.026826,1.000000,-0.000074,0.000026,-0.000066,-0.999581,0.004540,-0.004086,-0.028309,-0.506775,0.482725,3.242274,0.998364,0.056556,-0.008425,-0.056630,0.998356,-0.008844,0.007911,0.009307,0.999925
04240,2,0,-64.0000,9.270152,-1.668317,-2.657909,-0.033319,0.059229,-0.026020,-0.011876,0.003324,-0.016000,0.070643,-0.485930,-1.004916,0.092700,-0.016692,-0.026580,1.000000,-0.000059,0.000017,-0.000080,-0.999582,0.004592,-0.004034,-0.028257,-0.512900,0.476994,3.236332,0.998371,0.056453,-0.008325,-0.056527,0.998361,-0.008951,0.007806,0.009407,0.999925
04241,2,0,-64.0000,9.331929,-1.574936,-2.534873,0.132147,0.057430,-0.016253,-0.012868,-0.003899,-0.010369,0.074202,-0.480241,-1.016861,0.093319,-0.015756,-0.025346,1.000000,-0.000064,-0.000019,-0.000052,-0.999583,0.004650,-0.004029,-0.028200,-0.519585,0.476573,3.229754,0.998377,0.056338,-0.008318,-0.056413,0.998366,-0.009068,0.007793,0.009523,0.999924
04242,2,0,-65.0000,9.370669,-1.642445,-2.614623,0.045359,0.068382,0.053244,-0.017731,-0.005638,-0.014808,0.082499,-0.478541,-1.013145,0.093706,-0.016434,-0.026142,1.000000,-0.000089,-0.000028,-0.000074,-0.999585,0.004730,-0.004017,-0.028130,-0.528826,0.475398,3.221785,0.998385,0.056199,-0.008297,-0.056275,0.998373,-0.009229,0.007765,0.009681,0.999923
04243,2,0,-65.0000,9.377319,-1.699905,-2.613099,0.016257,0.117986,0.068501,-0.014696,-0.005200,-0.017550,0.076301,-0.483943,-1.018058,0.093772,-0.017009,-0.026127,1.000000,-0.000073,-0.000026,-0.000088,-0.999586,0.004822,-0.003997,-0.028075,-0.539511,0.473388,3.215425,0.998392,0.056088,-0.008262,-0.056165,0.998377,-0.009416,0.007721,0.009865,0.999922
04244,2,0,-63.0000,9.349537,-1.631228,-2.625578,0.035906,0.055794,0.034343,-0.017928,-0.007886,-0.014962,0.078156,-0.487892,-1.015838,0.093495,-0.016322,-0.026251,1.000000,-0.000090,-0.000039,-0.000075,-0.999588,0.004910,-0.003996,-0.028001,-0.549571,0.473437,3.206859,0.998400,0.055939,-0.008263,-0.056018,0.998384,-0.009591,0.007713,0.010039,0.999920
04245,2,0,-63.0000,9.358238,-1.660007,-2.670932,-0.012290,0.055251,0.059643,-0.012253,-0.011508,-0.020746,0.079120,-0.482760,-1.015382,0.093582,-0.016611,-0.026703,1.000000,-0.000061,-0.000058,-0.000104,-0.999588,0.005028,-0.003993,-0.027967,-0.563120,0.473507,3.202892,0.998404,0.055870,-0.008264,-0.055950,0.998385,-0.009828,0.007702,0.010275,0.999918
04246,2,0,-63.0000,9.330264,-1.741349,-2.673151,-0.068432,0.121284,0.046951,-0.001626,-0.007096,-0.019796,0.078279,-0.493452,-1.016648,0.093302,-0.017423,-0.026728,1.000000,-0.000008,-0.000035,-0.000099,-0.999588,0.005105,-0.003975,-0.027980,-0.572070,0.471728,3.204415,0.998403,0.055897,-0.008233,-0.055978,0.998382,-0.009984,0.007662,0.010429,0.999916
04247,2,0,-64.0000,9.306101,-1.773286,-2.708613,-0.121802,0.127924,0.038883,0.011428,-0.006699,-0.030364,0.077922,-0.481863,-1.016275,0.093059,-0.017745,-0.027084,1.000000,0.000057,-0.000033,-0.000152,-0.999585,0.005211,-0.003928,-0.028067,-0.584305,0.466647,3.214379,0.998394,0.056070,-0.008144,-0.056152,0.998370,-0.010198,0.007559,0.010638,0.999915
04248,2,0,-63.0000,9.319079,-1.747539,-2.655561,-0.063437,0.139709,0.032493,0.034032,-0.011383,-0.030267,0.074719,-0.482709,-1.020367,0.093190,-0.017485,-0.026553,1.000000,0.000170,-0.000057,-0.000151,-0.999579,0.005285,-0.003901,-0.028270,-0.592744,0.463908,3.237634,0.998371,0.056475,-0.008097,-0.056558,0.998346,-0.010345,0.007499,0.010786,0.999914
04249,2,0,-62.0000,9.300091,-1.709534,-2.711706,-0.092176,0.077380,0.023626,0.032092,-0.008635,-0.035312,0.076478,-0.478359,-1.023765,0.092999,-0.017107,-0.027116,1.000000,0.000160,-0.000043,-0.000177,-0.999573,0.005383,-0.003848,-0.028464,-0.604054,0.458365,3.259788,0.998350,0.056862,-0.008000,-0.056944,0.998322,-0.010542,0.007387,0.010980,0.999912
04250,2,0,-62.0000,9.329936,-1.602812,-2.698069,-0.013829,0.001125,0.030894,0.037461,-0.010453,-0.039115,0.074640,-0.478589,-1.022396,0.093298,-0.016041,-0.026979,1.000000,0.000187,-0.000052,-0.000196,-0.999566,0.005486,-0.003793,-0.028689,-0.615909,0.452472,3.285595,0.998325,0.057311,-0.007897,-0.057394,0.998294,-0.010749,0.007268,0.011184,0.999911
04251,2,0,-62.0000,9.336403,-1.667204,-2.636866,-0.001953,0.091466,0.030721,0.031788,-0.010852,-0.039723,0.071625,-0.478019,-1.015507,0.093362,-0.016686,-0.026366,1.000000,0.000159,-0.000054,-0.000199,-0.999560,0.005607,-0.003737,-0.028889,-0.629946,0.446655,3.308461,0.998303,0.057710,-0.007796,-0.057794,0.998268,-0.010994,0.007148,0.011426,0.999909
04252,2,0,-62.0000,9.341251,-1.602053,-2.599124,0.063804,0.062844,0.014467,0.025613,-0.011709,-0.038483,0.075728,-0.478086,-1.014277,0.093411,-0.016035,-0.025988,1.000000,0.000128,-0.000059,-0.000192,-0.999555,0.005730,-0.003688,-0.029057,-0.644069,0.441466,3.327792,0.998284,0.058047,-0.007705,-0.058131,0.998246,-0.011241,0.007039,0.011669,0.999907
04253,2,0,-62.0000,9.343555,-1.570712,-2.646347,0.044876,0.012441,0.024494,0.019131,-0.010775,-0.035243,0.071287,-0.480716,-1.014627,0.093434,-0.015721,-0.026460,1.000000,0.000096,-0.000054,-0.000176,-0.999550,0.005854,-0.003644,-0.029191,-0.658337,0.436919,3.343073,0.998269,0.058313,-0.007626,-0.058398,0.998227,-0.011490,0.006942,0.011915,0.999905
04254,2,0,-61.0000,9.332584,-1.570857,-2.687914,0.008711,-0.009577,0.025475,0.017324,-0.014367,-0.034100,0.077199,-0.483589,-1.012702,0.093325,-0.015722,-0.026874,1.000000,0.000087,-0.000072,-0.000171,-0.999546,0.005978,-0.003617,-0.029318,-0.672648,0.434331,3.357576,0.998255,0.058566,-0.007580,-0.058652,0.998209,-0.011739,0.006879,0.012163,0.999902
04255,2,0,-60.0000,9.317745,-1.627764,-2.636183,0.010775,0.068839,0.006406,0.010898,-0.004853,-0.036898,0.075408,-0.478012,-1.014172,0.093175,-0.016293,-0.026360,1.000000,0.000054,-0.000024,-0.000184,-0.999543,0.006106,-0.003543,-0.029410,-0.687437,0.426366,3.368096,0.998245,0.058749,-0.007441,-0.058835,0.998196,-0.011997,0.006723,0.012414,0.999900
04256,2,0,-60.0000,9.334700,-1.544254,-2.676333,0.030928,-0.019657,0.020052,0.004138,-0.008444,-0.029707,0.070472,-0.476060,-1.008456,0.093346,-0.015456,-0.026760,1.000000,0.000021,-0.000042,-0.000149,-0.999540,0.006217,-0.003503,-0.029463,-0.700321,0.422255,3.374165,0.998239,0.058855,-0.007370,-0.058942,0.998187,-0.012222,0.006637,0.012635,0.999898
04257,2,0,-60.0000,9.341731,-1.601040,-2.674555,0.001845,0.029951,0.035338,0.006361,-0.006659,-0.028615,0.067835,-0.474522,-1.019922,0.093416,-0.016023,-0.026743,1.000000,0.000032,-0.000033,-0.000143,-0.999538,0.006324,-0.003460,-0.029523,-0.712671,0.417680,3.381109,0.998233,0.058976,-0.007290,-0.059063,0.998177,-0.012438,0.006543,0.012846,0.999896
04258,2,0,-60.0000,9.342032,-1.598555,-2.674989,0.001993,0.029573,0.035339,0.004022,-0.004397,-0.027568,0.070198,-0.479013,-1.016326,0.093419,-0.015998,-0.026748,1.000000,0.000020,-0.000022,-0.000138,-0.999536,0.006418,-0.003408,-0.029570,-0.723604,0.412108,3.386427,0.998228,0.059068,-0.007193,-0.059156,0.998169,-0.012629,0.006433,0.013032,0.999894
04259,2,0,-60.0000,9.311232,-1.571088,-2.712489,-0.022123,-0.013635,0.011990,0.005133,-0.003503,-0.027023,0.070225,-0.483545,-1.015308,0.093111,-0.015723,-0.027124,1.000000,0.000026,-0.000018,-0.000135,-0.999534,0.006512,-0.003356,-0.029620,-0.734525,0.406488,3.392178,0.998223,0.059169,-0.007094,-0.059256,0.998161,-0.012819,0.006323,0.013217,0.999893
04260,2,0,-61.0000,9.312541,-1.555841,-2.640570,0.040866,0.017271,-0.008877,0.005435,-0.001273,-0.022632,0.072651,-0.474401,-1.018923,0.093124,-0.015568,-0.026406,1.000000,0.000027,-0.000006,-0.000113,-0.999533,0.006575,-0.003305,-0.029669,-0.741852,0.400938,3.397815,0.998218,0.059267,-0.006998,-0.059354,0.998153,-0.012947,0.006217,0.013339,0.999892
04261,2,0,-62.0000,9.345917,-1.550293,-2.650044,0.046223,0.009819,0.024491,0.001182,-0.002589,-0.024676,0.078763,-0.481897,-1.019374,0.093458,-0.015514,-0.026499,1.000000,0.000006,-0.000013,-0.000123,-0.999531,0.006663,-0.003256,-0.029697,-0.752148,0.395569,3.400973,0.998215,0.059322,-0.006904,-0.059409,0.998147,-0.013127,0.006112,0.013513,0.999890
04262,2,0,-61.0000,9.321943,-1.582606,-2.684906,-0.007147,0.016346,0.016436,-0.005918,0.001917,-0.017428,0.071619,-0.479894,-1.011911,0.093218,-0.015835,-0.026849,1.000000,-0.000030,0.000010,-0.000087,-0.999532,0.006715,-0.003207,-0.029675,-0.758310,0.390160,3.398548,0.998218,0.059280,-0.006810,-0.059366,0.998149,-0.013234,0.006012,0.013615,0.999889
04263,2,0,-60.0000,9.307754,-1.632863,-2.691706,-0.046047,0.054041,0.012829,-0.003997,0.001474,-0.020729,0.069241,-0.474711,-1.013190,0.093076,-0.016339,-0.026917,1.000000,-0.000020,0.000007,-0.000104,-0.999532,0.006786,-0.003151,-0.029670,-0.766548,0.383998,3.397917,0.998220,0.059269,-0.006702,-0.059354,0.998147,-0.013378,0.005897,0.013752,0.999888
04264,2,0,-60.0000,9.344007,-1.586014,-2.675556,0.003014,0.027610,0.035345,-0.010060,0.000578,-0.015227,0.076024,-0.481212,-1.015143,0.093439,-0.015869,-0.026755,1.000000,-0.000050,0.000003,-0.000076,-0.999533,0.006839,-0.003113,-0.029630,-0.772821,0.379748,3.393396,0.998225,0.059190,-0.006628,-0.059275,0.998151,-0.013488,0.005817,0.013856,0.999887
04265,2,0,-60.0000,9.324320,-1.556487,-2.672018,0.015223,0.006021,0.011009,-0.004198,0.003247,-0.014486,0.074161,-0.470914,-1.020185,0.093242,-0.015572,-0.026721,1.000000,-0.000021,0.000016,-0.000072,-0.999533,0.006881,-0.003067,-0.029614,-0.777716,0.374639,3.391540,0.998227,0.059158,-0.006539,-0.059242,0.998151,-0.013573,0.005724,0.013936,0.999887
04266,2,0,-60.0000,9.322696,-1.583548,-2.625353,0.034522,0.055782,0.001000,-0.010871,0.001914,-0.011381,0.081727,-0.481947,-1.018799,0.093226,-0.015842,-0.026254,1.000000,-0.000054,0.000010,-0.000057,-0.999534,0.006917,-0.003035,-0.029560,-0.782045,0.371051,3.385344,0.998234,0.059050,-0.006476,-0.059134,0.998157,-0.013649,0.005658,0.014007,0.999886
04267,2,0,-60.0000,9.321535,-1.603015,-2.637951,0.012840,0.064946,0.006430,-0.009570,0.005057,-0.010685,0.070580,-0.473652,-1.024668,0.093214,-0.016036,-0.026381,1.000000,-0.000048,0.000025,-0.000053,-0.999536,0.006947,-0.002992,-0.029511,-0.785641,0.366192,3.379816,0.998240,0.058954,-0.006391,-0.059037,0.998162,-0.013711,0.005571,0.014065,0.999886
04268,2,0,-62.0000,9.312018,-1.584032,-2.665712,-0.001453,0.033531,0.001982,-0.006810,0.000984,-0.009488,0.073368,-0.479287,-1.018386,0.093119,-0.015846,-0.026657,1.000000,-0.000034,0.000005,-0.000047,-0.999537,0.006972,-0.002970,-0.029476,-0.788618,0.363682,3.375735,0.998245,0.058882,-0.006347,-0.058965,0.998165,-0.013763,0.005525,0.014113,0.999885
04269,2,0,-61.0000,9.319116,-1.642457,-2.663237,-0.030516,0.083144,0.017296,-0.008541,0.003677,-0.006039,0.065424,-0.475523,-1.013487,0.093190,-0.016429,-0.026633,1.000000,-0.000043,0.000018,-0.000030,-0.999538,0.006986,-0.002945,-0.029427,-0.790304,0.360922,3.370177,0.998251,0.058786,-0.006299,-0.058868,0.998170,-0.013793,0.005477,0.014139,0.999885
04270,2,0,-61.0000,9.309092,-1.631552,-2.631624,-0.003858,0.092449,-0.002589,-0.006010,0.003670,-0.006942,0.070199,-0.474910,-1.020949,0.093090,-0.016320,-0.026317,1.000000,-0.000030,0.000018,-0.000035,-0.999539,0.006993,-0.002917,-0.029394,-0.791165,0.357717,3.366459,0.998255,0.058721,-0.006243,-0.058802,0.998174,-0.013808,0.005421,0.014151,0.999885
04271,2,0,-61.0000,9.289340,-1.602675,-2.627884,0.008345,0.070864,-0.026928,-0.001557,0.003221,-0.011144,0.070756,-0.486391,-1.013940,0.092892,-0.016032,-0.026280,1.000000,-0.000008,0.000016,-0.000056,-0.999539,0.007017,-0.002881,-0.029386,-0.794059,0.353666,3.365531,0.998256,0.058705,-0.006173,-0.058786,0.998174,-0.013858,0.005348,0.014197,0.999885
04272,2,0,-62.0000,9.312332,-1.588249,-2.605757,0.040191,0.072945,-0.013448,-0.005781,-0.000396,-0.004843,0.067737,-0.476636,-1.022714,0.093123,-0.015885,-0.026057,1.000000,-0.000029,-0.000002,-0.000024,-0.999540,0.007025,-0.002876,-0.029357,-0.795018,0.353090,3.362244,0.998260,0.058647,-0.006163,-0.058728,0.998178,-0.013875,0.005338,0.014213,0.999885
04273,2,0,-61.0000,9.333815,-1.594810,-2.596579,0.050202,0.084596,0.005463,-0.003250,-0.000403,-0.005745,0.073593,-0.478012,-1.019743,0.093338,-0.015951,-0.025965,1.000000,-0.000016,-0.000002,-0.000029,-0.999541,0.007041,-0.002870,-0.029337,-0.796806,0.352434,3.359886,0.998262,0.058606,-0.006151,-0.058687,0.998180,-0.013906,0.005325,0.014243,0.999884
04274,2,0,-60.0000,9.333937,-1.594027,-2.596622,0.050360,0.084212,0.005465,-0.010762,0.001893,-0.007139,0.070705,-0.478602,-1.013924,0.093339,-0.015945,-0.025966,1.000000,-0.000054,0.000009,-0.000036,-0.999542,0.007060,-0.002849,-0.029282,-0.799183,0.350028,3.353634,0.998269,0.058497,-0.006109,-0.058578,0.998185,-0.013948,0.005282,0.014281,0.999884
04275,2,0,-60.0000,9.314539,-1.557507,-2.652490,0.021573,0.021907,-0.003446,-0.016324,0.001449,-0.003487,0.077025,-0.472451,-1.008023,0.093145,-0.015579,-0.026524,1.000000,-0.000082,0.000007,-0.000017,-0.999545,0.007082,-0.002841,-0.029195,-0.801759,0.349068,3.343642,0.998279,0.058323,-0.006092,-0.058404,0.998195,-0.013993,0.005265,0.014324,0.999884
04276,2,0,-60.0000,9.324366,-1.574478,-2.624878,0.036230,0.052537,0.001012,-0.022186,-0.001220,-0.004234,0.076603,-0.467839,-1.019440,0.093243,-0.015750,-0.026246,1.000000,-0.000111,-0.000006,-0.000021,-0.999548,0.007117,-0.002840,-0.029081,-0.805716,0.349067,3.330564,0.998292,0.058095,-0.006092,-0.058176,0.998207,-0.014062,0.005264,0.014392,0.999883
04277,2,0,-60.0000,9.310307,-1.617995,-2.691858,-0.043646,0.049528,0.012864,-0.019615,-0.007542,-0.003190,0.077859,-0.475291,-1.015998,0.093104,-0.016184,-0.026913,1.000000,-0.000098,-0.000038,-0.000016,-0.999550,0.007167,-0.002870,-0.028985,-0.811385,0.352523,3.319532,0.998303,0.057903,-0.006153,-0.057986,0.998217,-0.014161,0.005322,0.014493,0.999881
04278,2,0,-61.0000,9.318634,-1.655857,-2.677288,-0.050824,0.089612,0.022762,-0.009232,0.000971,-0.004343,0.078246,-0.476575,-1.025881,0.093186,-0.016562,-0.026773,1.000000,-0.000046,0.000005,-0.000022,-0.999552,0.007177,-0.002862,-0.028925,-0.812579,0.351632,3.312610,0.998310,0.057783,-0.006137,-0.057865,0.998224,-0.014181,0.005307,0.014513,0.999881
04279,2,0,-60.0000,9.320044,-1.634601,-2.664822,-0.028791,0.079933,0.017328,-0.002099,-0.005824,-0.003250,0.069827,-0.475567,-1.018773,0.093201,-0.016348,-0.026645,1.000000,-0.000010,-0.000029,-0.000016,-0.999552,0.007195,-0.002886,-0.028911,-0.814605,0.354373,3.310976,0.998312,0.057754,-0.006185,-0.057837,0.998225,-0.014217,0.005353,0.014551,0.999880
04280,2,0,-59.0000,9.334484,-1.581851,-2.658297,0.010442,0.041585,0.020905,-0.005470,-0.002184,-0.006846,0.069125,-0.482740,-1.019828,0.093345,-0.015822,-0.026582,1.000000,-0.000027,-0.000011,-0.000034,-0.999553,0.007217,-0.002883,-0.028881,-0.817109,0.354155,3.307590,0.998315,0.057695,-0.006181,-0.057778,0.998228,-0.014260,0.005347,0.014594,0.999879
04281,2,0,-59.0000,9.322887,-1.591908,-2.639899,0.015268,0.060449,0.006456,-0.003750,-0.000859,-0.003897,0.072140,-0.473224,-1.016189,0.093229,-0.015921,-0.026398,1.000000,-0.000019,-0.000004,-0.000019,-0.999553,0.007227,-0.002884,-0.028856,-0.818276,0.354282,3.304716,0.998318,0.057645,-0.006183,-0.057728,0.998230,-0.014281,0.005349,0.014614,0.999879
04282,2,0,-60.0000,9.312660,-1.581430,-2.608730,0.041927,0.069750,-0.013432,0.000622,-0.003581,-0.004001,0.071998,-0.475469,-1.018454,0.093127,-0.015816,-0.026086,1.000000,0.000003,-0.000018,-0.000020,-0.999553,0.007231,-0.002895,-0.028858,-0.818695,0.355552,3.304881,0.998318,0.057648,-0.006206,-0.057732,0.998230,-0.014288,0.005371,0.014622,0.999879
04283,2,0,-60.0000,9.301018,-1.591764,-2.590333,0.046754,0.088615,-0.027881,0.000811,-0.001331,-0.003850,0.073454,-0.483738,-1.026374,0.093010,-0.015919,-0.025903,1.000000,0.000004,-0.000007,-0.000019,-0.999553,0.007235,-0.002899,-0.028855,-0.819153,0.355957,3.304526,0.998318,0.057642,-0.006213,-0.057726,0.998230,-0.014296,0.005378,0.014631,0.999879
04284,2,0,-60.0000,9.314044,-1.560115,-2.596371,0.064120,0.059671,-0.018870,-0.001300,-0.003142,-0.000701,0.082220,-0.481478,-1.018189,0.093141,-0.015602,-0.025962,1.000000,-0.000006,-0.000016,-0.000004,-0.999554,0.007228,-0.002917,-0.028842,-0.818266,0.358059,3.303084,0.998319,0.057617,-0.006249,-0.057701,0.998232,-0.014281,0.005415,0.014617,0.999878
04285,2,0,-59.0000,9.313047,-1.573038,-2.668627,0.001447,0.028127,0.001999,-0.002531,0.000007,0.000901,0.082925,-0.479678,-1.020730,0.093131,-0.015730,-0.026686,1.000000,-0.000013,0.000000,0.000005,-0.999554,0.007215,-0.002928,-0.028816,-0.816761,0.359246,3.300059,0.998322,0.057564,-0.006270,-0.057648,0.998235,-0.014254,0.005438,0.014592,0.999879
04286,2,0,-60.0000,9.334404,-1.580130,-2.659601,0.011498,0.039611,0.020912,-0.013454,-0.002649,0.001955,0.069763,-0.472458,-1.020036,0.093345,-0.015802,-0.026594,1.000000,-0.000067,-0.000013,0.000010,-0.999557,0.007214,-0.002954,-0.028735,-0.816611,0.362100,3.290802,0.998331,0.057403,-0.006320,-0.057488,0.998244,-0.014252,0.005491,0.014591,0.999878
04287,2,0,-60.0000,9.322680,-1.590823,-2.641283,0.016326,0.058478,0.006466,-0.005562,-0.000446,0.003652,0.071640,-0.478710,-1.017823,0.093227,-0.015907,-0.026412,1.000000,-0.000028,-0.000002,0.000018,-0.999558,0.007196,-0.002974,-0.028691,-0.814527,0.364327,3.285741,0.998336,0.057314,-0.006359,-0.057400,0.998250,-0.014215,0.005533,0.014557,0.999879
04288,2,0,-60.0000,9.332802,-1.601131,-2.672910,-0.010025,0.048404,0.026359,-0.001190,-0.003168,0.003548,0.074186,-0.480801,-1.019937,0.093329,-0.016010,-0.026728,1.000000,-0.000006,-0.000016,0.000018,-0.999559,0.007173,-0.003004,-0.028672,-0.811790,0.367693,3.283468,0.998338,0.057275,-0.006417,-0.057361,0.998253,-0.014168,0.005595,0.014512,0.999879
04289,2,0,-59.0000,9.334067,-1.580845,-2.660357,0.012003,0.038719,0.020915,0.000530,-0.001844,0.006497,0.064860,-0.480106,-1.022804,0.093341,-0.015805,-0.026603,1.000000,0.000003,-0.000009,0.000032,-0.999559,0.007138,-0.003039,-0.028654,-0.807711,0.371516,3.281412,0.998339,0.057239,-0.006484,-0.057326,0.998256,-0.014096,0.005666,0.014445,0.999880
04290,2,0,-59.0000,9.310673,-1.602784,-2.623199,0.021450,0.076568,-0.007975,0.004671,-0.000500,0.004296,0.070729,-0.481539,-1.018040,0.093107,-0.016025,-0.026232,1.000000,0.000023,-0.000002,0.000021,-0.999559,0.007095,-0.003060,-0.028664,-0.802674,0.373805,3.282632,0.998338,0.057260,-0.006524,-0.057347,0.998256,-0.014009,0.005711,0.014359,0.999881
04291,2,0,-58.0000,9.321724,-1.600498,-2.582646,0.057975,0.097899,-0.008951,0.001450,-0.003201,0.006895,0.072914,-0.474869,-1.017211,0.093218,-0.016002,-0.025825,1.000000,0.000007,-0.000016,0.000034,-0.999560,0.007061,-0.003101,-0.028652,-0.798644,0.378414,3.281138,0.998339,0.057234,-0.006605,-0.057322,0.998258,-0.013938,0.005795,0.014294,0.999881
04292,2,0,-58.0000,9.291766,-1.555332,-2.607300,0.055639,0.045171,-0.037778,-0.003111,-0.002728,0.006848,0.071906,-0.477921,-1.020991,0.092919,-0.015551,-0.026071,1.000000,-0.000016,-0.000014,0.000034,-0.999561,0.007026,-0.003139,-0.028620,-0.794527,0.382580,3.277463,0.998342,0.057170,-0.006677,-0.057258,0.998263,-0.013866,0.005873,0.014226,0.999882
04293,2,0,-65.0000,9.331606,-1.611549,-2.614665,0.031805,0.087553,0.010945,-0.005752,-0.002694,0.003500,0.080006,-0.478565,-1.013360,0.093317,-0.016115,-0.026145,1.000000,-0.000029,-0.000013,0.000018,-0.999562,0.007015,-0.003168,-0.028577,-0.793208,0.385848,3.272524,0.998347,0.057084,-0.006734,-0.057173,0.998268,-0.013843,0.005932,0.014205,0.999881
04294,2,0,-59.0000,9.328605,-1.653415,-2.640597,-0.011719,0.106016,0.021845,-0.005642,-0.002721,0.007748,0.078541,-0.480349,-1.010314,0.093287,-0.016531,-0.026404,1.000000,-0.000028,-0.000014,0.000039,-0.999563,0.006981,-0.003209,-0.028528,-0.789118,0.390379,3.266974,0.998352,0.056987,-0.006813,-0.057077,0.998275,-0.013772,0.006017,0.014138,0.999882
04295,2,0,-59.0000,9.353170,-1.611690,-2.665268,0.001003,0.058078,0.045285,-0.005562,-0.000444,0.003651,0.077091,-0.478400,-1.017289,0.093532,-0.016116,-0.026652,1.000000,-0.000028,-0.000002,0.000018,-0.999565,0.006963,-0.003229,-0.028484,-0.787036,0.392606,3.261915,0.998356,0.056899,-0.006852,-0.056989,0.998280,-0.013736,0.006059,0.014104,0.999882
04296,2,0,-59.0000,9.294424,-1.670350,-2.703558,-0.079405,0.081314,0.009364,-0.002341,0.002257,0.001052,0.075755,-0.477880,-1.013772,0.092944,-0.016703,-0.027036,1.000000,-0.000012,0.000011,0.000005,-0.999566,0.006935,-0.003231,-0.028457,-0.783883,0.392744,3.258741,0.998360,0.056844,-0.006855,-0.056933,0.998284,-0.013681,0.006065,0.014048,0.999883
04297,2,0,-59.0000,9.281370,-1.702073,-2.697525,-0.096423,0.109619,0.000376,0.013374,0.000369,0.002142,0.069752,-0.473996,-1.016695,0.092814,-0.017018,-0.026977,1.000000,0.000067,0.000002,0.000011,-0.999565,0.006892,-0.003245,-0.028504,-0.778822,0.394257,3.264158,0.998354,0.056938,-0.006881,-0.057028,0.998280,-0.013592,0.006095,0.013962,0.999884
04298,2,0,-59.0000,9.307549,-1.639530,-2.708791,-0.061871,0.052121,0.018362,0.019937,0.001732,-0.005208,0.069306,-0.480025,-1.018347,0.093075,-0.016395,-0.027090,1.000000,0.000100,0.000009,-0.000026,-0.999562,0.006856,-0.003233,-0.028591,-0.774801,0.392768,3.274160,0.998344,0.057112,-0.006855,-0.057201,0.998271,-0.013522,0.006071,0.013892,0.999885
04299,2,0,-59.0000,9.311934,-1.577193,-2.670057,0.003852,0.023571,0.002010,0.013155,0.000423,-0.006356,0.082110,-0.479759,-1.014045,0.093119,-0.015773,-0.026702,1.000000,0.000066,0.000002,-0.000032,-0.999561,0.006846,-0.003223,-0.028648,-0.773656,0.391648,3.280759,0.998338,0.057227,-0.006835,-0.057316,0.998265,-0.013502,0.006051,0.013871,0.999885
04300,2,0,-60.0000,9.343615,-1.594243,-2.692142,-0.012626,0.025356,0.040819,0.008823,-0.003170,-0.004306,0.077151,-0.472971,-1.015254,0.093436,-0.015943,-0.026921,1.000000,0.000044,-0.000016,-0.000022,-0.999560,0.006837,-0.003233,-0.028687,-0.772552,0.392800,3.285177,0.998333,0.057304,-0.006856,-0.057393,0.998261,-0.013483,0.006071,0.013854,0.999886
04301,2,0,-60.0000,9.333344,-1.584103,-2.660957,0.014053,0.034795,0.020927,0.011774,-0.004993,-0.002960,0.069621,-0.486071,-1.020504,0.093334,-0.015841,-0.026608,1.000000,0.000059,-0.000025,-0.000015,-0.999558,0.006830,-0.003255,-0.028738,-0.771688,0.395331,3.290984,0.998327,0.057406,-0.006900,-0.057494,0.998255,-0.013468,0.006115,0.013842,0.999885
04302,2,0,-59.0000,9.331848,-1.605086,-2.673871,-0.007632,0.043831,0.026382,0.017136,-0.002783,-0.000365,0.077334,-0.484469,-1.012232,0.093319,-0.016049,-0.026739,1.000000,0.000086,-0.000014,-0.000002,-0.999556,0.006792,-0.003275,-0.028811,-0.767205,0.397502,3.299438,0.998318,0.057553,-0.006938,-0.057642,0.998248,-0.013390,0.006155,0.013767,0.999886
04303,2,0,-59.0000,9.307000,-1.647621,-2.649674,-0.019993,0.091266,0.002961,0.015146,-0.008632,0.000633,0.072904,-0.474195,-1.017721,0.093071,-0.016474,-0.026494,1.000000,0.000076,-0.000043,0.000003,-0.999555,0.006776,-0.003322,-0.028876,-0.765150,0.402919,3.306854,0.998310,0.057682,-0.007032,-0.057772,0.998240,-0.013354,0.006250,0.013737,0.999886
04304,2,0,-59.0000,9.375789,-1.599357,-2.643227,0.034271,0.057501,0.058763,0.014305,-0.004999,-0.003865,0.080835,-0.478862,-1.015170,0.093758,-0.015993,-0.026431,1.000000,0.000072,-0.000025,-0.000019,-0.999553,0.006761,-0.003341,-0.028942,-0.763403,0.405122,3.314317,0.998302,0.057812,-0.007071,-0.057902,0.998233,-0.013323,0.006288,0.013710,0.999886
04305,2,0,-60.0000,9.332510,-1.592639,-2.602595,0.055752,0.074189,0.005517,0.010433,-0.001819,-0.005610,0.076465,-0.481155,-1.015544,0.093325,-0.015928,-0.026026,1.000000,0.000052,-0.000009,-0.000028,-0.999551,0.006759,-0.003342,-0.028987,-0.763065,0.405294,3.319518,0.998297,0.057903,-0.007074,-0.057993,0.998228,-0.013317,0.006290,0.013705,0.999886
04306,2,0,-59.0000,9.308705,-1.619090,-2.696732,-0.038616,0.040072,0.012928,0.009933,-0.002277,-0.003761,0.068639,-0.482288,-1.025062,0.093087,-0.016191,-0.026967,1.000000,0.000050,-0.000011,-0.000019,-0.999550,0.006743,-0.003351,-0.029027,-0.761238,0.406277,3.324090,0.998292,0.057982,-0.007091,-0.058073,0.998224,-0.013285,0.006308,0.013674,0.999887
04307,2,0,-59.0000,9.332968,-1.584690,-2.661927,0.015108,0.032824,0.020932,0.011043,-0.001384,-0.003213,0.072556,-0.476218,-1.017351,0.093330,-0.015847,-0.026620,1.000000,0.000055,-0.000007,-0.000016,-0.999549,0.006729,-0.003357,-0.029072,-0.759564,0.406978,3.329216,0.998287,0.058072,-0.007103,-0.058162,0.998219,-0.013256,0.006321,0.013647,0.999887
04308,2,0,-59.0000,9.289668,-1.577995,-2.621354,0.036558,0.049390,-0.032313,0.006102,-0.005412,-0.003558,0.076490,-0.475891,-1.018633,0.092897,-0.015781,-0.026212,1.000000,0.000031,-0.000027,-0.000018,-0.999548,0.006728,-0.003377,-0.029101,-0.759386,0.409281,3.332553,0.998283,0.058130,-0.007143,-0.058221,0.998216,-0.013253,0.006360,0.013646,0.999887
04309,2,0,-60.0000,9.339775,-1.643915,-2.660128,-0.013745,0.082061,0.036334,0.012695,-0.006347,-0.002567,0.081734,-0.478501,-1.020085,0.093398,-0.016439,-0.026599,1.000000,0.000063,-0.000032,-0.000013,-0.999546,0.006722,-0.003406,-0.029156,-0.758569,0.412593,3.338923,0.998277,0.058241,-0.007201,-0.058332,0.998209,-0.013239,0.006417,0.013636,0.999886
04310,2,0,-60.0000,9.318279,-1.636880,-2.669592,-0.023407,0.069807,0.017419,0.010543,-0.001841,-0.001364,0.072917,-0.466982,-1.023375,0.093183,-0.016368,-0.026696,1.000000,0.000053,-0.000009,-0.000007,-0.999546,0.006696,-0.003420,-0.029192,-0.755545,0.414134,3.342995,0.998272,0.058312,-0.007228,-0.058403,0.998206,-0.013186,0.006446,0.013585,0.999887
04311,2,0,-60.0000,9.312345,-1.564351,-2.599917,0.068806,0.050937,-0.018853,0.008402,-0.001353,-0.006561,0.069523,-0.479351,-1.018161,0.093123,-0.015645,-0.025999,1.000000,0.000042,-0.000007,-0.000033,-0.999544,0.006699,-0.003417,-0.029229,-0.755873,0.413774,3.347194,0.998268,0.058385,-0.007222,-0.058476,0.998202,-0.013192,0.006438,0.013591,0.999887
04312,2,0,-59.0000,9.342909,-1.594592,-2.694387,-0.010543,0.021501,0.040831,0.008554,-0.007690,-0.000363,0.070258,-0.477361,-1.023022,0.093430,-0.015945,-0.026941,1.000000,0.000043,-0.000038,-0.000002,-0.999543,0.006689,-0.003455,-0.029260,-0.754645,0.418222,3.350781,0.998264,0.058447,-0.007299,-0.058540,0.998198,-0.013170,0.006516,0.013575,0.999887
04313,2,0,-59.0000,9.336246,-1.693147,-2.627318,-0.015706,0.140392,0.031858,0.005603,-0.005869,-0.001708,0.072353,-0.481367,-1.018312,0.093363,-0.016932,-0.026271,1.000000,0.000028,-0.000029,-0.000009,-0.999543,0.006690,-0.003484,-0.029281,-0.754582,0.421515,3.353113,0.998261,0.058488,-0.007357,-0.058581,0.998196,-0.013169,0.006573,0.013577,0.999886
04314,2,0,-59.0000,9.340434,-1.630696,-2.589389,0.049979,0.111693,0.015478,0.010243,-0.004067,-0.005765,0.074530,-0.474657,-1.022103,0.093404,-0.016308,-0.025893,1.000000,0.000051,-0.000020,-0.000029,-0.999541,0.006687,-0.003493,-0.029331,-0.754259,0.422539,3.358879,0.998255,0.058588,-0.007375,-0.058682,0.998190,-0.013164,0.006590,0.013573,0.999886
04315,2,0,-59.0000,9.300789,-1.566932,-2.642022,0.033105,0.028122,-0.017875,0.008633,-0.005417,-0.004464,0.078165,-0.485400,-1.018152,0.093008,-0.015670,-0.026418,1.000000,0.000043,-0.000027,-0.000022,-0.999540,0.006692,-0.003512,-0.029369,-0.754774,0.424790,3.363244,0.998250,0.058664,-0.007414,-0.058758,0.998185,-0.013173,0.006628,0.013585,0.999886
04316,2,0,-59.0000,9.350931,-1.632612,-2.680808,-0.017183,0.060651,0.050785,0.002961,-0.005839,-0.005054,0.075268,-0.474903,-1.015667,0.093510,-0.016328,-0.026806,1.000000,0.000015,-0.000029,-0.000025,-0.999540,0.006703,-0.003531,-0.029382,-0.755918,0.426983,3.364699,0.998248,0.058690,-0.007452,-0.058784,0.998184,-0.013193,0.006664,0.013607,0.999885
04317,2,0,-59.0000,9.284762,-1.639481,-2.662412,-0.027411,0.074925,-0.015913,0.010354,-0.004088,-0.001518,0.072667,-0.482675,-1.020983,0.092848,-0.016394,-0.026623,1.000000,0.000052,-0.000020,-0.000008,-0.999538,0.006690,-0.003553,-0.029423,-0.754383,0.429506,3.369431,0.998243,0.058772,-0.007496,-0.058867,0.998179,-0.013166,0.006709,0.013584,0.999885
04318,2,0,-59.0000,9.307930,-1.618153,-2.699969,-0.036561,0.036272,0.012951,0.011163,-0.005422,-0.005369,0.076201,-0.480686,-1.017255,0.093080,-0.016183,-0.026998,1.000000,0.000056,-0.000027,-0.000027,-0.999537,0.006689,-0.003569,-0.029476,-0.754090,0.431396,3.375449,0.998237,0.058877,-0.007529,-0.058972,0.998173,-0.013161,0.006741,0.013581,0.999885
04319,2,0,-59.0000,9.342010,-1.601240,-2.637434,0.031684,0.060005,0.025431,0.010931,-0.001358,-0.007470,0.070944,-0.478019,-1.017597,0.093420,-0.016014,-0.026375,1.000000,0.000055,-0.000007,-0.000037,-0.999535,0.006691,-0.003563,-0.029526,-0.754376,0.430777,3.381166,0.998231,0.058977,-0.007518,-0.059072,0.998167,-0.013166,0.006728,0.013586,0.999885
04320,2,0,-60.0000,9.308959,-1.604463,-2.628249,0.026645,0.066882,-0.007916,0.012084,-0.006777,-0.004972,0.078544,-0.481617,-1.018532,0.093090,-0.016045,-0.026280,1.000000,0.000060,-0.000034,-0.000025,-0.999533,0.006690,-0.003586,-0.029584,-0.754107,0.433439,3.387850,0.998224,0.059093,-0.007565,-0.059189,0.998160,-0.013161,0.006773,0.013585,0.999885
04321,2,0,-59.0000,9.319110,-1.614487,-2.659879,0.000322,0.056932,0.011980,0.018445,-0.003646,-0.006087,0.074342,-0.476400,-1.019731,0.093191,-0.016145,-0.026599,1.000000,0.000092,-0.000018,-0.000030,-0.999531,0.006681,-0.003594,-0.029670,-0.753064,0.434405,3.397651,0.998214,0.059264,-0.007582,-0.059360,0.998150,-0.013143,0.006789,0.013569,0.999885
04322,2,0,-59.0000,9.310292,-1.583583,-2.615864,0.048843,0.056799,-0.013381,0.012885,-0.004091,-0.002426,0.072614,-0.480882,-1.015573,0.093103,-0.015835,-0.026158,1.000000,0.000064,-0.000020,-0.000012,-0.999529,0.006661,-0.003614,-0.029724,-0.750718,0.436641,3.403805,0.998207,0.059371,-0.007621,-0.059467,0.998144,-0.013102,0.006829,0.013531,0.999885
04323,2,0,-59.0000,9.287351,-1.597229,-2.638212,0.017315,0.054121,-0.026832,0.007024,-0.006765,-0.003163,0.074579,-0.477715,-1.012362,0.092874,-0.015973,-0.026380,1.000000,0.000035,-0.000034,-0.000016,-0.999528,0.006668,-0.003642,-0.029753,-0.751324,0.439931,3.407215,0.998203,0.059430,-0.007678,-0.059527,0.998141,-0.013112,0.006885,0.013546,0.999885
04324,2,0,-60.0000,9.330082,-1.611392,-2.620193,0.037212,0.077450,0.011011,0.007024,-0.006765,-0.003164,0.074213,-0.474606,-1.014553,0.093301,-0.016114,-0.026199,1.000000,0.000035,-0.000034,-0.000016,-0.999527,0.006667,-0.003670,-0.029785,-0.751112,0.443107,3.410852,0.998199,0.059494,-0.007734,-0.059592,0.998137,-0.013109,0.006939,0.013546,0.999884
04325,2,0,-60.0000,9.352802,-1.597680,-2.598685,0.069096,0.079613,0.024464,0.005604,-0.005866,-0.001711,0.082984,-0.475820,-1.021006,0.093529,-0.015977,-0.025985,1.000000,0.000028,-0.000029,-0.000009,-0.999527,0.006667,-0.003699,-0.029806,-0.751047,0.446398,3.413185,0.998196,0.059534,-0.007791,-0.059633,0.998134,-0.013107,0.006996,0.013548,0.999884
