// General information: 
//  MT Manager version: 2020.3.0 
//  XDA version: 2020.3.0 build 5439 rev 106958 built on 2020-11-10
// Device information: 
//  DeviceId: 00B46A09
//  ProductCode: MTW2-3A7G6
//  Firmware Version: 4.4.0
//  Hardware Version: 2.0.0
// Device settings: 
//  Filter Profile: human(46.1)
//  Option Flags: Orientation Smoother Disabled, Position/Velocity Smoother Disabled, Continuous Zero Rotation Update Disabled, AHS Disabled, ICC Disabled
// Coordinate system: ENU
PacketCounter,StatusWord,ClippingFlags,RSSI,Acc_X,Acc_Y,Acc_Z,FreeAcc_E,FreeAcc_N,FreeAcc_U,Gyr_X,Gyr_Y,Gyr_Z,Mag_X,Mag_Y,Mag_Z,VelInc_X,VelInc_Y,VelInc_Z,OriInc_q0,OriInc_q1,OriInc_q2,OriInc_q3,Quat_q0,Quat_q1,Quat_q2,Quat_q3,Roll,Pitch,Yaw,Mat[1][1],Mat[2][1],Mat[3][1],Mat[1][2],Mat[2][2],Mat[3][2],Mat[1][3],Mat[2][3],Mat[3][3]
03987,2,0,-53.0000,9.585799,0.747439,-1.986261,-0.020467,-0.020735,0.005184,-0.005477,0.014079,-0.001352,0.174282,0.450484,-1.239424,0.095857,0.007473,-0.019870,1.000000,-0.000027,0.000070,-0.000007,-0.999878,0.001795,-0.002227,0.015381,-0.209642,0.252009,-1.763117,0.999517,-0.030767,-0.004398,0.030751,0.999520,-0.003659,0.004509,0.003522,0.999984
03988,2,0,-53.0000,9.602473,0.774241,-1.970109,-0.012556,-0.051123,0.020191,-0.009799,0.011859,-0.002029,0.169220,0.446810,-1.249574,0.096024,0.007740,-0.019707,1.000000,-0.000049,0.000059,-0.000010,-0.999877,0.001820,-0.002178,0.015433,-0.212344,0.246373,-1.769024,0.999514,-0.030870,-0.004300,0.030854,0.999517,-0.003706,0.004412,0.003572,0.999984
03989,2,0,-53.0000,9.626703,0.721089,-1.980019,0.001149,0.002643,0.041948,-0.011043,0.013144,-0.003393,0.165424,0.444386,-1.247261,0.096266,0.007208,-0.019807,1.000000,-0.000055,0.000066,-0.000017,-0.999876,0.001856,-0.002128,0.015495,-0.216442,0.240551,-1.776075,0.999511,-0.030993,-0.004198,0.030977,0.999513,-0.003778,0.004313,0.003646,0.999984
03990,2,0,-54.0000,9.637208,0.732556,-2.009674,-0.028797,0.003024,0.059008,0.001021,0.015231,-0.002802,0.164502,0.447118,-1.238824,0.096371,0.007324,-0.020104,1.000000,0.000005,0.000076,-0.000014,-0.999876,0.001878,-0.002065,0.015491,-0.218844,0.233257,-1.775694,0.999512,-0.030986,-0.004071,0.030971,0.999513,-0.003820,0.004187,0.003692,0.999984
03991,2,0,-53.0000,9.613437,0.786505,-1.997214,-0.042326,-0.051263,0.037247,0.006624,0.011809,-0.005699,0.168427,0.449773,-1.240914,0.096133,0.007863,-0.019978,1.000000,0.000033,0.000059,-0.000028,-0.999876,0.001903,-0.002023,0.015491,-0.221633,0.228430,-1.775641,0.999512,-0.030986,-0.003987,0.030970,0.999513,-0.003868,0.004105,0.003743,0.999985
03992,2,0,-54.0000,9.600361,0.768107,-1.987718,-0.031180,-0.036861,0.021214,-0.008375,0.017180,-0.001876,0.169324,0.444724,-1.249346,0.096002,0.007679,-0.019886,1.000000,-0.000042,0.000086,-0.000009,-0.999876,0.001934,-0.001949,0.015534,-0.225051,0.219887,-1.780546,0.999510,-0.031071,-0.003838,0.031056,0.999510,-0.003928,0.003958,0.003807,0.999985
03993,2,0,-53.0000,9.587662,0.785460,-2.041794,-0.090745,-0.033012,0.020919,-0.009619,0.018465,-0.003240,0.163520,0.447819,-1.240860,0.095875,0.007852,-0.020427,1.000000,-0.000048,0.000092,-0.000016,-0.999875,0.001976,-0.001873,0.015593,-0.229785,0.211090,-1.787382,0.999507,-0.031190,-0.003684,0.031176,0.999506,-0.004010,0.003807,0.003894,0.999985
03994,2,0,-53.0000,9.594131,0.801397,-1.994147,-0.052831,-0.064090,0.018860,-0.014471,0.015499,-0.002628,0.174751,0.444291,-1.244268,0.095940,0.008011,-0.019949,1.000000,-0.000072,0.000077,-0.000013,-0.999874,0.002014,-0.001808,0.015666,-0.234037,0.203584,-1.795686,0.999503,-0.031335,-0.003553,0.031321,0.999501,-0.004085,0.003679,0.003971,0.999985
03995,2,0,-54.0000,9.587940,0.750889,-1.974593,-0.019836,-0.022991,0.005180,-0.012291,0.014431,-0.004757,0.164246,0.453037,-1.251004,0.095878,0.007505,-0.019753,1.000000,-0.000061,0.000072,-0.000024,-0.999873,0.002060,-0.001754,0.015733,-0.239148,0.197288,-1.803383,0.999499,-0.031470,-0.003443,0.031455,0.999496,-0.004174,0.003573,0.004063,0.999985
03996,2,0,-54.0000,9.588215,0.751677,-1.972956,-0.019774,-0.023291,0.005179,-0.012885,0.017739,-0.006500,0.170070,0.446889,-1.244513,0.095881,0.007512,-0.019739,1.000000,-0.000064,0.000089,-0.000032,-0.999872,0.002117,-0.001686,0.015793,-0.245662,0.189298,-1.810268,0.999495,-0.031590,-0.003304,0.031575,0.999492,-0.004288,0.003438,0.004181,0.999985
03997,2,0,-53.0000,9.605607,0.731314,-1.992588,-0.027882,0.003801,0.024595,-0.008461,0.011549,-0.007726,0.171070,0.454726,-1.256463,0.096055,0.007309,-0.019932,1.000000,-0.000042,0.000058,-0.000039,-0.999871,0.002168,-0.001649,0.015853,-0.251408,0.185050,-1.817119,0.999492,-0.031709,-0.003230,0.031695,0.999488,-0.004388,0.003367,0.004283,0.999985
03998,2,0,-53.0000,9.608930,0.739612,-1.968119,-0.008895,-0.011892,0.023563,0.002317,0.019280,-0.003551,0.167322,0.446135,-1.249916,0.096088,0.007395,-0.019690,1.000000,0.000012,0.000096,-0.000018,-0.999871,0.002199,-0.001568,0.015841,-0.254789,0.175709,-1.815756,0.999493,-0.031685,-0.003067,0.031672,0.999488,-0.004447,0.003206,0.004347,0.999985
03999,2,0,-54.0000,9.585984,0.746173,-1.991089,-0.038444,-0.008724,0.006210,0.000524,0.019516,-0.011599,0.161363,0.454687,-1.252383,0.095858,0.007456,-0.019920,1.000000,0.000003,0.000098,-0.000058,-0.999871,0.002271,-0.001502,0.015836,-0.262888,0.167966,-1.815149,0.999494,-0.031675,-0.002932,0.031661,0.999488,-0.004588,0.003075,0.004493,0.999985
04000,2,0,-53.0000,9.639275,0.786529,-1.957630,-0.011980,-0.057261,0.054589,0.005434,0.018430,-0.009173,0.173341,0.445533,-1.247961,0.096391,0.007861,-0.019585,1.000000,0.000027,0.000092,-0.000046,-0.999871,0.002323,-0.001434,0.015804,-0.268709,0.160149,-1.811438,0.999496,-0.031610,-0.002795,0.031597,0.999490,-0.004690,0.002942,0.004599,0.999985
04001,2,0,-53.0000,9.582752,0.787873,-1.974498,-0.041181,-0.051339,0.002820,-0.000948,0.018553,-0.006814,0.171094,0.445417,-1.242235,0.095826,0.007875,-0.019754,1.000000,-0.000005,0.000093,-0.000034,-0.999871,0.002372,-0.001364,0.015818,-0.274292,0.151983,-1.813105,0.999496,-0.031639,-0.002653,0.031626,0.999488,-0.004787,0.002803,0.004701,0.999985
04002,2,0,-54.0000,9.586071,0.796241,-1.949899,-0.022198,-0.067032,0.001785,-0.004025,0.015047,-0.006132,0.170080,0.449382,-1.235026,0.095859,0.007959,-0.019506,1.000000,-0.000020,0.000075,-0.000031,-0.999871,0.002415,-0.001307,0.015837,-0.279036,0.145401,-1.815176,0.999495,-0.031675,-0.002538,0.031663,0.999487,-0.004870,0.002691,0.004787,0.999985
04003,2,0,-54.0000,9.563054,0.802756,-1.973294,-0.051729,-0.063847,-0.015568,-0.010527,0.013893,-0.004686,0.168458,0.445434,-1.247163,0.095629,0.008024,-0.019740,1.000000,-0.000053,0.000069,-0.000023,-0.999870,0.002458,-0.001256,0.015884,-0.283866,0.139485,-1.820625,0.999492,-0.031770,-0.002434,0.031758,0.999483,-0.004954,0.002591,0.004875,0.999985
04004,2,0,-53.0000,9.586501,0.797603,-1.947226,-0.022016,-0.067588,0.001782,-0.007222,0.010264,-0.006362,0.168087,0.443340,-1.252827,0.095864,0.007972,-0.019477,1.000000,-0.000036,0.000051,-0.000032,-0.999869,0.002496,-0.001223,0.015919,-0.288245,0.135526,-1.824661,0.999490,-0.031841,-0.002365,0.031829,0.999481,-0.005031,0.002524,0.004953,0.999985
04005,2,0,-54.0000,9.627094,0.771091,-1.942512,-0.000448,-0.043989,0.038553,-0.002310,0.009178,-0.003936,0.163181,0.451511,-1.248528,0.096270,0.007709,-0.019430,1.000000,-0.000012,0.000046,-0.000020,-0.999869,0.002517,-0.001192,0.015923,-0.290537,0.131974,-1.825071,0.999490,-0.031848,-0.002303,0.031836,0.999480,-0.005071,0.002464,0.004995,0.999984
04006,2,0,-54.0000,9.593702,0.766229,-1.935341,-0.000030,-0.041536,0.004137,0.004312,0.011609,-0.004467,0.166642,0.446525,-1.251268,0.095936,0.007661,-0.019359,1.000000,0.000022,0.000058,-0.000022,-0.999870,0.002537,-0.001148,0.015903,-0.292758,0.126963,-1.822802,0.999492,-0.031808,-0.002216,0.031797,0.999481,-0.005110,0.002377,0.005036,0.999984
04007,2,0,-54.0000,9.576681,0.787789,-1.913228,0.008242,-0.069156,-0.015288,-0.000417,0.009916,-0.002949,0.176160,0.443661,-1.242823,0.095766,0.007876,-0.019137,1.000000,-0.000002,0.000050,-0.000015,-0.999869,0.002553,-0.001112,0.015926,-0.294594,0.122703,-1.825333,0.999490,-0.031853,-0.002142,0.031841,0.999480,-0.005142,0.002304,0.005071,0.999984
04008,2,0,-54.0000,9.573835,0.780448,-1.935184,-0.010616,-0.054061,-0.014253,0.006615,0.011818,-0.005682,0.171342,0.453723,-1.254773,0.095737,0.007802,-0.019357,1.000000,0.000033,0.000059,-0.000028,-0.999870,0.002577,-0.001069,0.015893,-0.297217,0.117814,-1.821629,0.999493,-0.031788,-0.002056,0.031777,0.999482,-0.005187,0.002220,0.005119,0.999984
04009,2,0,-54.0000,9.588204,0.752011,-1.978160,-0.037584,-0.011592,0.006210,0.002946,0.011619,-0.006744,0.172905,0.448248,-1.244621,0.095881,0.007517,-0.019787,1.000000,0.000015,0.000058,-0.000034,-0.999870,0.002611,-0.001033,0.015851,-0.301007,0.113657,-1.816822,0.999495,-0.031704,-0.001984,0.031693,0.999484,-0.005254,0.002149,0.005188,0.999984
04010,2,0,-54.0000,9.591374,0.760264,-1.954224,-0.018602,-0.027288,0.005171,0.004070,0.009058,-0.006292,0.171838,0.444388,-1.249386,0.095913,0.007600,-0.019546,1.000000,0.000020,0.000045,-0.000031,-0.999871,0.002635,-0.001005,0.015832,-0.303757,0.110370,-1.814590,0.999497,-0.031665,-0.001926,0.031655,0.999485,-0.005302,0.002093,0.005238,0.999984
04011,2,0,-54.0000,9.639288,0.737116,-2.003508,-0.045931,0.012406,0.060053,0.004719,0.011081,-0.006669,0.175634,0.455250,-1.242211,0.096392,0.007368,-0.020040,1.000000,0.000024,0.000055,-0.000033,-0.999871,0.002665,-0.000971,0.015783,-0.307118,0.106466,-1.808937,0.999500,-0.031567,-0.001858,0.031556,0.999488,-0.005360,0.002026,0.005299,0.999984
04012,2,0,-54.0000,9.628291,0.774380,-1.935257,0.000159,-0.046028,0.038544,0.000046,0.014719,-0.007271,0.163244,0.448759,-1.236307,0.096282,0.007740,-0.019360,1.000000,0.000000,0.000074,-0.000036,-0.999871,0.002708,-0.000918,0.015780,-0.311910,0.100287,-1.808609,0.999500,-0.031561,-0.001750,0.031551,0.999487,-0.005444,0.001921,0.005386,0.999984
04013,2,0,-54.0000,9.629448,0.727147,-1.969697,-0.015745,0.011185,0.042988,-0.000127,0.017801,-0.003242,0.163875,0.458308,-1.244182,0.096293,0.007270,-0.019706,1.000000,-0.000001,0.000089,-0.000016,-0.999871,0.002741,-0.000846,0.015787,-0.315572,0.091979,-1.809377,0.999500,-0.031574,-0.001605,0.031565,0.999487,-0.005508,0.001778,0.005454,0.999984
04014,2,0,-54.0000,9.592297,0.762557,-1.948790,-0.018229,-0.028403,0.005169,0.001754,0.018237,-0.010227,0.168324,0.442807,-1.248383,0.095922,0.007621,-0.019497,1.000000,0.000009,0.000091,-0.000051,-0.999871,0.002801,-0.000781,0.015772,-0.322365,0.084456,-1.807610,0.999501,-0.031543,-0.001474,0.031535,0.999487,-0.005626,0.001651,0.005577,0.999983
04015,2,0,-54.0000,9.599445,0.731283,-1.937169,0.003688,-0.002010,0.007533,0.006241,0.017380,-0.013568,0.161112,0.448218,-1.246586,0.095993,0.007307,-0.019380,1.000000,0.000031,0.000087,-0.000068,-0.999872,0.002873,-0.000728,0.015743,-0.330475,0.078233,-1.804337,0.999503,-0.031486,-0.001365,0.031478,0.999488,-0.005768,0.001546,0.005722,0.999982
04016,2,0,-54.0000,9.589776,0.757065,-1.968593,-0.036989,-0.013566,0.006210,0.007365,0.014819,-0.013115,0.171837,0.448593,-1.234155,0.095897,0.007565,-0.019693,1.000000,0.000037,0.000074,-0.000066,-0.999872,0.002935,-0.000684,0.015699,-0.337493,0.073122,-1.799246,0.999506,-0.031398,-0.001276,0.031390,0.999490,-0.005890,0.001461,0.005847,0.999982
04017,2,0,-54.0000,9.552465,0.793003,-1.948167,-0.039438,-0.053110,-0.031613,0.011323,0.013215,-0.015165,0.169361,0.445975,-1.242613,0.095524,0.007924,-0.019488,1.000000,0.000057,0.000066,-0.000076,-0.999873,0.003001,-0.000654,0.015640,-0.345057,0.069511,-1.792543,0.999510,-0.031281,-0.001213,0.031273,0.999493,-0.006022,0.001401,0.005981,0.999981
04018,2,0,-54.0000,9.565893,0.813008,-1.955252,-0.050464,-0.068118,-0.015590,0.003524,0.008010,-0.012972,0.169008,0.449231,-1.238542,0.095659,0.008124,-0.019556,1.000000,0.000018,0.000040,-0.000065,-0.999873,0.003055,-0.000642,0.015617,-0.351219,0.068046,-1.789907,0.999511,-0.031235,-0.001188,0.031227,0.999494,-0.006130,0.001378,0.006090,0.999981
04019,2,0,-54.0000,9.593092,0.768294,-1.942615,-0.017786,-0.029794,0.005166,0.007719,0.008959,-0.013197,0.171920,0.444254,-1.240165,0.095931,0.007677,-0.019430,1.000000,0.000039,0.000045,-0.000066,-0.999874,0.003109,-0.000628,0.015564,-0.357368,0.066454,-1.783837,0.999515,-0.031129,-0.001160,0.031121,0.999496,-0.006237,0.001353,0.006198,0.999980
04020,2,0,-54.0000,9.592663,0.852830,-1.969867,-0.072459,-0.098103,0.016453,0.004767,0.006726,-0.011606,0.166326,0.450172,-1.245208,0.095926,0.008523,-0.019702,1.000000,0.000024,0.000034,-0.000058,-0.999874,0.003153,-0.000620,0.015537,-0.362422,0.065433,-1.780713,0.999516,-0.031074,-0.001142,0.031066,0.999497,-0.006325,0.001338,0.006287,0.999979
04021,2,0,-54.0000,9.558650,0.812821,-1.899260,-0.001243,-0.085048,-0.033709,0.000040,0.005029,-0.010092,0.165231,0.448166,-1.249467,0.095586,0.008123,-0.018995,1.000000,0.000000,0.000025,-0.000050,-0.999874,0.003194,-0.000620,0.015524,-0.367089,0.065354,-1.779215,0.999517,-0.031048,-0.001141,0.031040,0.999498,-0.006407,0.001339,0.006368,0.999979
04022,2,0,-54.0000,9.626733,0.776707,-1.947123,-0.017894,-0.033442,0.039577,-0.000196,0.002477,-0.011917,0.161932,0.449078,-1.238023,0.096268,0.007761,-0.019472,1.000000,-0.000001,0.000012,-0.000060,-0.999874,0.003238,-0.000632,0.015522,-0.372130,0.066674,-1.779018,0.999517,-0.031045,-0.001164,0.031037,0.999497,-0.006495,0.001365,0.006456,0.999978
04023,2,0,-54.0000,9.615867,0.850162,-1.943647,-0.042544,-0.102411,0.033791,0.004765,0.006727,-0.011605,0.163863,0.459159,-1.243181,0.096159,0.008497,-0.019440,1.000000,0.000024,0.000034,-0.000058,-0.999874,0.003284,-0.000625,0.015511,-0.377351,0.065792,-1.777778,0.999518,-0.031023,-0.001148,0.031015,0.999497,-0.006586,0.001352,0.006547,0.999978
04024,2,0,-54.0000,9.606547,0.792086,-1.948023,-0.028483,-0.045955,0.021184,0.007490,0.006712,-0.007048,0.166044,0.449328,-1.243899,0.096065,0.007918,-0.019483,1.000000,0.000037,0.000034,-0.000035,-0.999875,0.003304,-0.000609,0.015475,-0.379660,0.063933,-1.773641,0.999520,-0.030951,-0.001116,0.030943,0.999499,-0.006626,0.001320,0.006589,0.999977
04025,2,0,-54.0000,9.573043,0.787417,-1.941350,-0.028042,-0.043418,-0.013231,0.007901,0.006183,-0.009250,0.168289,0.450456,-1.246378,0.095730,0.007871,-0.019416,1.000000,0.000040,0.000031,-0.000046,-0.999875,0.003337,-0.000601,0.015457,-0.383362,0.062938,-1.771566,0.999521,-0.030915,-0.001098,0.030907,0.999500,-0.006691,0.001305,0.006654,0.999977
04026,2,0,-54.0000,9.592370,0.822219,-1.902832,-0.001242,-0.089231,0.000692,0.005303,0.007778,-0.004922,0.164100,0.455681,-1.243731,0.095923,0.008220,-0.019032,1.000000,0.000027,0.000039,-0.000025,-0.999875,0.003351,-0.000576,0.015434,-0.385005,0.060094,-1.768848,0.999523,-0.030867,-0.001049,0.030860,0.999501,-0.006720,0.001256,0.006684,0.999977
04027,2,0,-54.0000,9.606794,0.793728,-1.946136,-0.028233,-0.046740,0.021181,0.001636,0.007575,-0.005988,0.166431,0.448947,-1.240236,0.096067,0.007935,-0.019465,1.000000,0.000008,0.000038,-0.000030,-0.999875,0.003377,-0.000556,0.015439,-0.387931,0.057753,-1.769480,0.999523,-0.030878,-0.001008,0.030871,0.999500,-0.006771,0.001217,0.006736,0.999977
04028,2,0,-54.0000,9.641456,0.751974,-1.987493,-0.044518,0.007632,0.060064,0.002577,0.007793,-0.009479,0.164070,0.449497,-1.247221,0.096414,0.007515,-0.019879,1.000000,0.000013,0.000039,-0.000047,-0.999875,0.003416,-0.000539,0.015424,-0.392319,0.055748,-1.767776,0.999524,-0.030849,-0.000973,0.030841,0.999501,-0.006847,0.001184,0.006814,0.999976
04029,2,0,-54.0000,9.623270,0.821759,-1.929599,-0.020253,-0.077425,0.036148,0.001037,0.010884,-0.007730,0.173205,0.451096,-1.246683,0.096232,0.008214,-0.019301,1.000000,0.000005,0.000054,-0.000039,-0.999875,0.003455,-0.000507,0.015425,-0.396716,0.051936,-1.767810,0.999524,-0.030849,-0.000906,0.030842,0.999500,-0.006924,0.001120,0.006893,0.999976
04030,2,0,-54.0000,9.593770,0.777127,-1.935740,-0.016922,-0.032902,0.005157,0.001400,0.005022,-0.007813,0.177066,0.452056,-1.247512,0.095938,0.007768,-0.019360,1.000000,0.000007,0.000025,-0.000039,-0.999875,0.003482,-0.000500,0.015418,-0.399857,0.051113,-1.767071,0.999524,-0.030836,-0.000892,0.030829,0.999500,-0.006979,0.001107,0.006948,0.999975
04031,2,0,-54.0000,9.556264,0.812377,-1.916244,-0.019340,-0.072429,-0.032682,0.004008,0.003731,-0.004167,0.172334,0.443704,-1.242252,0.095562,0.008122,-0.019164,1.000000,0.000020,0.000019,-0.000021,-0.999876,0.003490,-0.000497,0.015371,-0.400776,0.050809,-1.761654,0.999527,-0.030742,-0.000887,0.030735,0.999503,-0.006995,0.001101,0.006964,0.999975
04032,2,0,-54.0000,9.627372,0.783336,-1.941301,-0.017059,-0.036243,0.039568,0.007322,0.000104,-0.005839,0.167874,0.451006,-1.244291,0.096274,0.007831,-0.019413,1.000000,0.000037,0.000001,-0.000029,-0.999876,0.003494,-0.000510,0.015339,-0.401257,0.052299,-1.758031,0.999529,-0.030679,-0.000913,0.030671,0.999505,-0.007003,0.001127,0.006972,0.999975
04033,2,0,-54.0000,9.590836,0.770745,-1.958092,-0.035497,-0.018339,0.006208,0.006194,0.002665,-0.006292,0.171107,0.451743,-1.243986,0.095908,0.007705,-0.019582,1.000000,0.000031,0.000013,-0.000031,-0.999877,0.003507,-0.000515,0.015294,-0.402723,0.052841,-1.752877,0.999532,-0.030589,-0.000922,0.030581,0.999508,-0.007029,0.001137,0.006997,0.999975
04034,2,0,-54.0000,9.607077,0.797776,-1.943080,-0.027612,-0.048755,0.021173,0.009625,0.000316,-0.007050,0.165695,0.448015,-1.245821,0.096071,0.007975,-0.019431,1.000000,0.000048,0.000002,-0.000035,-0.999877,0.003514,-0.000529,0.015250,-0.403606,0.054454,-1.747818,0.999534,-0.030500,-0.000950,0.030493,0.999510,-0.007044,0.001165,0.007012,0.999975
04035,2,0,-54.0000,9.586818,0.811895,-1.944807,-0.038241,-0.060953,0.002777,-0.006873,0.004394,-0.006455,0.173044,0.445266,-1.231667,0.095868,0.008115,-0.019450,1.000000,-0.000034,0.000022,-0.000032,-0.999877,0.003545,-0.000525,0.015281,-0.407114,0.053968,-1.751328,0.999532,-0.030562,-0.000942,0.030554,0.999508,-0.007105,0.001159,0.007073,0.999974
04036,2,0,-54.0000,9.590856,0.772338,-1.957364,-0.035259,-0.019208,0.006207,-0.002374,0.003844,-0.001820,0.171599,0.445718,-1.242843,0.095908,0.007722,-0.019576,1.000000,-0.000012,0.000019,-0.000009,-0.999877,0.003547,-0.000514,0.015299,-0.407323,0.052641,-1.753426,0.999531,-0.030598,-0.000919,0.030591,0.999507,-0.007109,0.001136,0.007078,0.999974
04037,2,0,-54.0000,9.610094,0.807037,-1.919127,-0.008386,-0.065006,0.020114,-0.001550,0.002786,-0.006224,0.165424,0.447332,-1.242267,0.096101,0.008067,-0.019193,1.000000,-0.000008,0.000014,-0.000031,-0.999877,0.003568,-0.000518,0.015284,-0.409724,0.053151,-1.751630,0.999532,-0.030567,-0.000928,0.030560,0.999507,-0.007151,0.001146,0.007119,0.999974
04038,2,0,-54.0000,9.596774,0.788745,-1.910909,0.002766,-0.050593,0.004094,0.001469,0.000966,-0.004780,0.174853,0.447450,-1.246538,0.095968,0.007885,-0.019109,1.000000,0.000007,0.000005,-0.000024,-0.999877,0.003575,-0.000526,0.015281,-0.410509,0.053953,-1.751367,0.999532,-0.030562,-0.000942,0.030555,0.999507,-0.007165,0.001160,0.007133,0.999974
04039,2,0,-54.0000,9.563175,0.783729,-1.904864,0.003236,-0.048086,-0.030319,0.006264,-0.001390,-0.003259,0.159549,0.444828,-1.250745,0.095632,0.007836,-0.019048,1.000000,0.000031,-0.000007,-0.000016,-0.999877,0.003567,-0.000544,0.015241,-0.409608,0.056108,-1.746812,0.999535,-0.030483,-0.000979,0.030475,0.999510,-0.007149,0.001197,0.007116,0.999974
04040,2,0,-54.0000,9.586792,0.813906,-1.944095,-0.037793,-0.062413,0.002770,0.010870,-0.000966,-0.005683,0.161678,0.447207,-1.247207,0.095868,0.008137,-0.019440,1.000000,0.000054,-0.000005,-0.000028,-0.999878,0.003564,-0.000562,0.015193,-0.409382,0.058163,-1.741265,0.999538,-0.030386,-0.001015,0.030378,0.999513,-0.007145,0.001232,0.007111,0.999974
04041,2,0,-55.0000,9.606950,0.800746,-1.942487,-0.026982,-0.050786,0.021164,0.007804,-0.004479,-0.005007,0.162334,0.442202,-1.238359,0.096070,0.008006,-0.019422,1.000000,0.000039,-0.000022,-0.000025,-0.999878,0.003556,-0.000595,0.015182,-0.408530,0.062032,-1.739995,0.999538,-0.030364,-0.001083,0.030355,0.999514,-0.007130,0.001299,0.007094,0.999974
04042,2,0,-55.0000,9.603869,0.793279,-1.966012,-0.045831,-0.035682,0.022221,0.000778,-0.006391,-0.002283,0.161876,0.453001,-1.244752,0.096039,0.007932,-0.019657,1.000000,0.000004,-0.000032,-0.000011,-0.999878,0.003540,-0.000633,0.015188,-0.406729,0.066344,-1.740717,0.999538,-0.030377,-0.001158,0.030368,0.999514,-0.007099,0.001373,0.007060,0.999974
04043,2,0,-55.0000,9.609648,0.808990,-1.920538,-0.007932,-0.066766,0.020102,0.006146,-0.002666,-0.004171,0.176489,0.451620,-1.238399,0.096097,0.008088,-0.019204,1.000000,0.000031,-0.000013,-0.000021,-0.999878,0.003534,-0.000657,0.015185,-0.406121,0.069116,-1.740449,0.999538,-0.030372,-0.001206,0.030363,0.999514,-0.007088,0.001421,0.007048,0.999974
04044,2,0,-55.0000,9.592213,0.830467,-1.900038,0.000294,-0.094396,0.000644,-0.001642,-0.007880,-0.001983,0.169050,0.449072,-1.240548,0.095923,0.008304,-0.018997,1.000000,-0.000008,-0.000039,-0.000010,-0.999878,0.003517,-0.000701,0.015204,-0.404182,0.074167,-1.742625,0.999537,-0.030410,-0.001294,0.030400,0.999513,-0.007054,0.001508,0.007012,0.999974
04045,2,0,-54.0000,9.590139,0.775346,-1.959686,-0.034464,-0.021789,0.006205,-0.008974,-0.008290,-0.004116,0.174360,0.446909,-1.249178,0.095902,0.007751,-0.019593,1.000000,-0.000045,-0.000041,-0.000021,-0.999877,0.003519,-0.000754,0.015240,-0.404500,0.080216,-1.746757,0.999534,-0.030482,-0.001400,0.030471,0.999511,-0.007060,0.001615,0.007014,0.999974
04046,2,0,-55.0000,9.599865,0.751036,-1.927504,0.006344,-0.010858,0.007526,-0.006777,-0.009051,0.001731,0.168751,0.453003,-1.244729,0.095999,0.007511,-0.019271,1.000000,-0.000034,-0.000045,0.000009,-0.999877,0.003488,-0.000797,0.015288,-0.401002,0.085183,-1.752276,0.999531,-0.030578,-0.001487,0.030567,0.999508,-0.006999,0.001700,0.006950,0.999974
04047,2,0,-54.0000,9.607052,0.754682,-1.982417,-0.042441,0.004971,0.025663,-0.001467,-0.010962,-0.006009,0.166609,0.454635,-1.250013,0.096072,0.007544,-0.019819,1.000000,-0.000007,-0.000055,-0.000030,-0.999877,0.003485,-0.000865,0.015288,-0.400819,0.093010,-1.752241,0.999531,-0.030578,-0.001623,0.030566,0.999508,-0.006996,0.001836,0.006943,0.999974
04048,2,0,-54.0000,9.576236,0.757695,-1.954125,-0.023124,-0.007940,-0.009810,0.002244,-0.005424,-0.007063,0.167732,0.454573,-1.238518,0.095763,0.007574,-0.019539,1.000000,0.000011,-0.000027,-0.000035,-0.999877,0.003491,-0.000906,0.015282,-0.401548,0.097703,-1.751562,0.999531,-0.030566,-0.001705,0.030553,0.999509,-0.007008,0.001919,0.006953,0.999974
04049,2,0,-54.0000,9.640253,0.761231,-1.989800,-0.042624,0.001637,0.060075,0.002361,-0.004147,-0.006151,0.161349,0.450232,-1.242642,0.096403,0.007610,-0.019896,1.000000,0.000012,-0.000021,-0.000031,-0.999877,0.003498,-0.000941,0.015288,-0.402392,0.101733,-1.752366,0.999531,-0.030580,-0.001776,0.030567,0.999508,-0.007023,0.001989,0.006965,0.999974
04050,2,0,-54.0000,9.586313,0.770088,-1.985932,-0.052963,-0.007785,0.007266,0.003945,-0.001904,-0.010019,0.164601,0.451502,-1.245587,0.095864,0.007696,-0.019858,1.000000,0.000020,-0.000010,-0.000050,-0.999877,0.003521,-0.000971,0.015270,-0.405124,0.105083,-1.750252,0.999532,-0.030543,-0.001834,0.030529,0.999509,-0.007071,0.002049,0.007011,0.999973
04051,2,0,-54.0000,9.612790,0.808682,-2.002213,-0.075069,-0.037476,0.039293,0.004473,-0.001156,-0.011308,0.160418,0.443754,-1.243691,0.096128,0.008082,-0.020021,1.000000,0.000022,-0.000006,-0.000057,-0.999877,0.003553,-0.001000,0.015271,-0.408847,0.108363,-1.750402,0.999532,-0.030545,-0.001891,0.030531,0.999508,-0.007136,0.002108,0.007075,0.999973
04052,2,0,-54.0000,9.585020,0.819724,-1.950375,-0.036849,-0.065795,0.002751,0.005719,-0.002439,-0.009942,0.168079,0.448060,-1.248330,0.095851,0.008193,-0.019502,1.000000,0.000029,-0.000012,-0.000050,-0.999877,0.003573,-0.001032,0.015244,-0.411225,0.111996,-1.747326,0.999533,-0.030492,-0.001955,0.030477,0.999510,-0.007177,0.002173,0.007114,0.999972
04053,2,0,-54.0000,9.568648,0.793890,-1.965606,-0.044576,-0.035958,-0.012197,0.011159,-0.002768,-0.008799,0.172439,0.447111,-1.237530,0.095687,0.007936,-0.019654,1.000000,0.000056,-0.000014,-0.000044,-0.999877,0.003583,-0.001065,0.015200,-0.412333,0.115759,-1.742269,0.999536,-0.030404,-0.002020,0.030388,0.999512,-0.007196,0.002238,0.007132,0.999972
04054,2,0,-54.0000,9.561485,0.827017,-1.976160,-0.066357,-0.062890,-0.014585,0.008914,-0.007340,-0.012523,0.170568,0.458691,-1.246867,0.095616,0.008265,-0.019758,1.000000,0.000045,-0.000037,-0.000063,-0.999878,0.003603,-0.001124,0.015156,-0.414792,0.122543,-1.737325,0.999538,-0.030317,-0.002139,0.030301,0.999515,-0.007239,0.002357,0.007171,0.999972
04055,2,0,-54.0000,9.604705,0.808821,-1.950228,-0.025832,-0.054713,0.021146,0.001773,-0.010531,-0.010709,0.173400,0.448390,-1.247474,0.096049,0.008083,-0.019497,1.000000,0.000009,-0.000053,-0.000054,-0.999878,0.003621,-0.001198,0.015147,-0.416922,0.131012,-1.736246,0.999538,-0.030298,-0.002287,0.030281,0.999515,-0.007277,0.002506,0.007204,0.999971
04056,2,0,-54.0000,9.594069,0.798643,-1.920360,0.004229,-0.055707,0.004066,0.008869,-0.012671,-0.010402,0.174608,0.451843,-1.251229,0.095942,0.007982,-0.019197,1.000000,0.000044,-0.000063,-0.000052,-0.999878,0.003623,-0.001279,0.015108,-0.417286,0.140281,-1.731796,0.999540,-0.030221,-0.002448,0.030202,0.999517,-0.007283,0.002667,0.007206,0.999970
04057,2,0,-54.0000,9.596709,0.807038,-1.898723,0.023266,-0.071388,0.002997,0.009705,-0.013424,-0.006834,0.172811,0.447547,-1.247598,0.095969,0.008068,-0.018980,1.000000,0.000049,-0.000067,-0.000034,-0.999879,0.003608,-0.001361,0.015047,-0.415707,0.149676,-1.724870,0.999543,-0.030100,-0.002612,0.030080,0.999521,-0.007255,0.002829,0.007173,0.999970
04058,2,0,-54.0000,9.587495,0.784308,-1.969034,-0.033389,-0.025457,0.006199,0.009586,-0.014700,-0.007745,0.156997,0.461003,-1.246203,0.095877,0.007840,-0.019683,1.000000,0.000048,-0.000074,-0.000039,-0.999880,0.003593,-0.001446,0.015008,-0.414206,0.159547,-1.720404,0.999545,-0.030022,-0.002785,0.030001,0.999524,-0.007229,0.003000,0.007142,0.999970
04059,2,0,-54.0000,9.573502,0.730498,-1.898543,0.048533,-0.000459,-0.025570,0.015843,-0.016085,-0.011005,0.160221,0.456949,-1.247893,0.095737,0.007301,-0.018977,1.000000,0.000079,-0.000080,-0.000055,-0.999880,0.003588,-0.001545,0.014960,-0.413733,0.170905,-1.714937,0.999548,-0.029927,-0.002983,0.029905,0.999527,-0.007221,0.003198,0.007128,0.999969
04060,2,0,-54.0000,9.569386,0.806940,-1.951338,-0.025095,-0.053325,-0.013272,0.017497,-0.017895,-0.011839,0.171015,0.451504,-1.247712,0.095696,0.008065,-0.019504,1.000000,0.000087,-0.000089,-0.000059,-0.999882,0.003579,-0.001653,0.014879,-0.412847,0.183307,-1.705717,0.999552,-0.029766,-0.003199,0.029742,0.999532,-0.007205,0.003412,0.007107,0.999969
04061,2,0,-54.0000,9.616792,0.784346,-2.003390,-0.052412,-0.013644,0.041679,0.010045,-0.019588,-0.014878,0.172416,0.447157,-1.251258,0.096170,0.007837,-0.020024,1.000000,0.000050,-0.000098,-0.000074,-0.999882,0.003591,-0.001775,0.014855,-0.414473,0.197270,-1.703040,0.999552,-0.029719,-0.003443,0.029694,0.999533,-0.007234,0.003656,0.007128,0.999968
04062,2,0,-54.0000,9.551150,0.830204,-1.934016,-0.016804,-0.081194,-0.032746,0.009871,-0.016504,-0.010854,0.167604,0.449923,-1.246231,0.095514,0.008298,-0.019332,1.000000,0.000049,-0.000083,-0.000054,-0.999882,0.003588,-0.001875,0.014812,-0.414248,0.208703,-1.698144,0.999554,-0.029634,-0.003643,0.029607,0.999535,-0.007230,0.003855,0.007119,0.999967
04063,2,0,-54.0000,9.645068,0.796216,-1.936333,0.015215,-0.048558,0.056866,0.007096,-0.021825,-0.013283,0.173163,0.450182,-1.241680,0.096453,0.007956,-0.019353,1.000000,0.000035,-0.000109,-0.000066,-0.999882,0.003591,-0.002005,0.014779,-0.414804,0.223692,-1.694450,0.999555,-0.029569,-0.003904,0.029540,0.999537,-0.007240,0.004116,0.007121,0.999966
04064,2,0,-54.0000,9.574528,0.778835,-1.948835,-0.002941,-0.027822,-0.010884,0.010801,-0.016284,-0.014344,0.174518,0.454797,-1.242970,0.095747,0.007783,-0.019480,1.000000,0.000054,-0.000081,-0.000072,-0.999883,0.003603,-0.002110,0.014728,-0.416349,0.235667,-1.688633,0.999557,-0.029468,-0.004113,0.029437,0.999540,-0.007267,0.004325,0.007142,0.999965
04065,2,0,-53.0000,9.597574,0.809765,-1.989887,-0.043917,-0.042091,0.022205,0.008458,-0.021828,-0.011004,0.176065,0.447379,-1.238308,0.095978,0.008093,-0.019888,1.000000,0.000042,-0.000109,-0.000055,-0.999883,0.003595,-0.002237,0.014690,-0.415732,0.250312,-1.684361,0.999558,-0.029393,-0.004369,0.029361,0.999543,-0.007256,0.004580,0.007124,0.999964
04066,2,0,-53.0000,9.582759,0.839654,-1.947967,-0.016806,-0.085127,0.001656,0.009100,-0.019802,-0.011383,0.185618,0.445945,-1.245601,0.095830,0.008392,-0.019470,1.000000,0.000046,-0.000099,-0.000057,-0.999883,0.003590,-0.002353,0.014652,-0.415274,0.263627,-1.679980,0.999560,-0.029317,-0.004601,0.029283,0.999545,-0.007248,0.004812,0.007110,0.999963
04067,2,0,-53.0000,9.605577,0.834940,-1.924982,0.013004,-0.088908,0.018982,-0.006786,-0.019054,-0.009028,0.178330,0.451372,-1.236796,0.096058,0.008344,-0.019241,1.000000,-0.000034,-0.000095,-0.000045,-0.999883,0.003593,-0.002466,0.014657,-0.415836,0.276525,-1.680609,0.999558,-0.029328,-0.004826,0.029292,0.999545,-0.007258,0.005037,0.007113,0.999962
04068,2,0,-53.0000,9.602104,0.828199,-1.949860,-0.005836,-0.073794,0.020053,-0.007551,-0.022355,-0.009558,0.176182,0.444655,-1.246823,0.096024,0.008277,-0.019488,1.000000,-0.000038,-0.000112,-0.000048,-0.999882,0.003592,-0.002591,0.014702,-0.415990,0.290810,-1.685870,0.999554,-0.029419,-0.005076,0.029382,0.999542,-0.007260,0.005287,0.007108,0.999961
04069,2,0,-53.0000,9.572098,0.783596,-1.958837,-0.002421,-0.029203,-0.010888,-0.005581,-0.025663,-0.005535,0.176057,0.452313,-1.241552,0.095724,0.007833,-0.019576,1.000000,-0.000028,-0.000128,-0.000028,-0.999881,0.003568,-0.002728,0.014726,-0.413385,0.306506,-1.688620,0.999551,-0.029467,-0.005350,0.029428,0.999541,-0.007215,0.005560,0.007054,0.999960
04070,2,0,-53.0000,9.583693,0.851147,-1.933585,0.002501,-0.101680,0.000571,-0.004892,-0.027997,-0.010846,0.167509,0.446462,-1.240967,0.095840,0.008506,-0.019323,1.000000,-0.000024,-0.000140,-0.000054,-0.999881,0.003561,-0.002881,0.014759,-0.412864,0.324099,-1.692490,0.999548,-0.029535,-0.005657,0.029494,0.999539,-0.007206,0.005867,0.007036,0.999958
04071,2,0,-53.0000,9.601454,0.783043,-1.992945,-0.021502,-0.017165,0.024596,-0.006715,-0.023104,-0.005988,0.166957,0.451715,-1.242347,0.096017,0.007827,-0.019919,1.000000,-0.000034,-0.000116,-0.000030,-0.999880,0.003544,-0.003005,0.014811,-0.411144,0.338320,-1.698531,0.999543,-0.029640,-0.005905,0.029598,0.999536,-0.007176,0.006115,0.006998,0.999957
04072,2,0,-53.0000,9.608079,0.787138,-2.049374,-0.070337,-0.001356,0.042756,0.004735,-0.027359,-0.009941,0.170530,0.446889,-1.242364,0.096084,0.007867,-0.020480,1.000000,0.000024,-0.000137,-0.000050,-0.999879,0.003523,-0.003154,0.014798,-0.409073,0.355436,-1.697082,0.999542,-0.029615,-0.006203,0.029570,0.999537,-0.007139,0.006412,0.006953,0.999955
04073,2,0,-53.0000,9.600513,0.820054,-2.061421,-0.092106,-0.028239,0.040359,0.011457,-0.013943,-0.006761,0.175543,0.448692,-1.240443,0.096007,0.008198,-0.020607,1.000000,0.000057,-0.000070,-0.000034,-0.999880,0.003506,-0.003236,0.014769,-0.407168,0.364827,-1.693803,0.999543,-0.029558,-0.006367,0.029512,0.999539,-0.007106,0.006574,0.006915,0.999954
04074,2,0,-53.0000,9.603175,0.828505,-2.039893,-0.073144,-0.043955,0.039280,0.000454,-0.014576,-0.009937,0.168382,0.454316,-1.246148,0.096034,0.008280,-0.020392,1.000000,0.000002,-0.000073,-0.000050,-0.999879,0.003511,-0.003325,0.014772,-0.407962,0.375006,-1.694200,0.999541,-0.029564,-0.006545,0.029518,0.999539,-0.007120,0.006753,0.006924,0.999953
04075,2,0,-54.0000,9.559084,0.812880,-2.004002,-0.042715,-0.042077,-0.012213,0.008192,-0.014682,-0.010020,0.166752,0.454875,-1.246048,0.095593,0.008125,-0.020033,1.000000,0.000041,-0.000073,-0.000050,-0.999879,0.003511,-0.003416,0.014749,-0.408111,0.385467,-1.691618,0.999542,-0.029519,-0.006728,0.029471,0.999540,-0.007123,0.006935,0.006921,0.999952
04076,2,0,-54.0000,9.575985,0.792545,-2.026511,-0.050794,-0.015058,0.007269,0.000452,-0.014576,-0.009936,0.175603,0.446518,-1.245200,0.095762,0.007921,-0.020258,1.000000,0.000002,-0.000073,-0.000050,-0.999879,0.003517,-0.003505,0.014753,-0.408905,0.395646,-1.692017,0.999540,-0.029526,-0.006905,0.029477,0.999540,-0.007137,0.007113,0.006930,0.999951
04077,2,0,-54.0000,9.601956,0.795672,-1.980249,-0.002150,-0.034256,0.023515,0.004402,-0.016169,-0.011988,0.178205,0.458169,-1.236270,0.096022,0.007951,-0.019795,1.000000,0.000022,-0.000081,-0.000060,-0.999879,0.003527,-0.003606,0.014748,-0.410240,0.407238,-1.691549,0.999539,-0.029518,-0.007108,0.029467,0.999540,-0.007160,0.007316,0.006947,0.999949
04078,2,0,-54.0000,9.594451,0.828944,-1.991810,-0.023944,-0.061176,0.021113,0.006294,-0.015425,-0.011004,0.172843,0.462845,-1.243110,0.095946,0.008285,-0.019910,1.000000,0.000031,-0.000077,-0.000055,-0.999879,0.003530,-0.003701,0.014722,-0.410717,0.418100,-1.688592,0.999539,-0.029466,-0.007297,0.029414,0.999542,-0.007168,0.007505,0.006950,0.999948
04079,2,0,-54.0000,9.590998,0.822141,-2.016344,-0.042740,-0.045956,0.022193,0.006172,-0.016701,-0.011913,0.171557,0.451983,-1.238589,0.095912,0.008216,-0.020155,1.000000,0.000031,-0.000084,-0.000060,-0.999878,0.003540,-0.003805,0.014715,-0.412036,0.430047,-1.687847,0.999538,-0.029453,-0.007506,0.029400,0.999542,-0.007191,0.007714,0.006967,0.999946
04080,2,0,-54.0000,9.624071,0.828648,-2.024278,-0.043016,-0.049083,0.056601,0.000206,-0.017128,-0.011752,0.173408,0.457814,-1.245728,0.096243,0.008281,-0.020235,1.000000,0.000001,-0.000086,-0.000059,-0.999878,0.003550,-0.003909,0.014718,-0.413355,0.441947,-1.688291,0.999536,-0.029461,-0.007713,0.029406,0.999542,-0.007214,0.007922,0.006984,0.999944
04081,2,0,-54.0000,9.572872,0.845379,-1.998493,-0.034455,-0.073806,0.002703,-0.006565,-0.016498,-0.007190,0.174678,0.448142,-1.248497,0.095731,0.008450,-0.019977,1.000000,-0.000033,-0.000082,-0.000036,-0.999876,0.003550,-0.004004,0.014779,-0.413598,0.452773,-1.695245,0.999531,-0.029582,-0.007902,0.029525,0.999538,-0.007218,0.008112,0.006982,0.999943
04082,2,0,-54.0000,9.579648,0.813844,-1.989834,-0.012532,-0.047488,0.005104,-0.012169,-0.013096,-0.004299,0.172736,0.444832,-1.253324,0.095798,0.008135,-0.019893,1.000000,-0.000061,-0.000065,-0.000021,-0.999875,0.003546,-0.004076,0.014849,-0.413257,0.461040,-1.703284,0.999526,-0.029723,-0.008047,0.029665,0.999534,-0.007212,0.008257,0.006970,0.999942
04083,2,0,-54.0000,9.572194,0.811367,-1.937205,0.036454,-0.063899,-0.013066,-0.012654,-0.018202,-0.007937,0.182390,0.449289,-1.250152,0.095724,0.008109,-0.019364,1.000000,-0.000063,-0.000091,-0.000040,-0.999874,0.003551,-0.004181,0.014916,-0.414031,0.472945,-1.711081,0.999520,-0.029859,-0.008254,0.029799,0.999530,-0.007226,0.008466,0.006976,0.999940
04084,2,0,-54.0000,9.572794,0.764533,-1.974775,0.020587,-0.006739,-0.008497,-0.010882,-0.018733,-0.007864,0.177531,0.450219,-1.238622,0.095730,0.007640,-0.019739,1.000000,-0.000054,-0.000094,-0.000039,-0.999872,0.003552,-0.004286,0.014978,-0.414386,0.484938,-1.718243,0.999515,-0.029983,-0.008464,0.029923,0.999526,-0.007232,0.008676,0.006975,0.999938
04085,2,0,-54.0000,9.565218,0.797768,-1.986529,-0.001154,-0.033615,-0.010902,-0.005040,-0.019580,-0.008935,0.175194,0.454956,-1.237622,0.095654,0.007973,-0.019856,1.000000,-0.000025,-0.000098,-0.000045,-0.999872,0.003553,-0.004399,0.014999,-0.414659,0.497945,-1.720685,0.999511,-0.030026,-0.008691,0.029963,0.999525,-0.007237,0.008904,0.006973,0.999936
04086,2,0,-53.0000,9.582003,0.777280,-2.009641,-0.009223,-0.006600,0.008589,0.002903,-0.022458,-0.005079,0.170833,0.450812,-1.247423,0.095822,0.007771,-0.020086,1.000000,0.000015,-0.000112,-0.000025,-0.999871,0.003520,-0.004517,0.014998,-0.411141,0.511486,-1.720597,0.999509,-0.030024,-0.008927,0.029961,0.999525,-0.007175,0.009138,0.006904,0.999934
04087,2,0,-53.0000,9.584520,0.821132,-2.052698,-0.060993,-0.032759,0.023270,0.006487,-0.018192,-0.007061,0.177378,0.455925,-1.242585,0.095847,0.008209,-0.020518,1.000000,0.000032,-0.000091,-0.000035,-0.999871,0.003503,-0.004619,0.014993,-0.409315,0.523245,-1.720034,0.999508,-0.030014,-0.009132,0.029950,0.999526,-0.007144,0.009342,0.006867,0.999933
04088,2,0,-54.0000,9.559854,0.839810,-1.978954,-0.003914,-0.076496,-0.014397,-0.004242,-0.010951,-0.010531,0.169613,0.449285,-1.245663,0.095600,0.008393,-0.019784,1.000000,-0.000021,-0.000055,-0.000053,-0.999870,0.003522,-0.004692,0.015017,-0.411675,0.531555,-1.722840,0.999505,-0.030063,-0.009277,0.029997,0.999524,-0.007185,0.009489,0.006903,0.999931
04089,2,0,-54.0000,9.566641,0.808629,-1.970270,0.018037,-0.050133,-0.011992,-0.003879,-0.016806,-0.010605,0.174983,0.442835,-1.238325,0.095668,0.008081,-0.019695,1.000000,-0.000019,-0.000084,-0.000053,-0.999869,0.003534,-0.004794,0.015057,-0.413253,0.543192,-1.727433,0.999501,-0.030143,-0.009480,0.030076,0.999522,-0.007212,0.009693,0.006924,0.999929
04090,2,0,-54.0000,9.580381,0.780799,-2.016001,-0.008921,-0.007694,0.008589,-0.002228,-0.018613,-0.011441,0.181646,0.444825,-1.247495,0.095806,0.007802,-0.020151,1.000000,-0.000011,-0.000093,-0.000057,-0.999868,0.003543,-0.004904,0.015073,-0.414443,0.555828,-1.729340,0.999498,-0.030177,-0.009701,0.030107,0.999521,-0.007233,0.009914,0.006937,0.999927
04091,2,0,-53.0000,9.553383,0.779655,-2.065745,-0.057360,0.010983,-0.007644,0.007769,-0.023824,-0.010627,0.183576,0.449848,-1.236923,0.095537,0.007792,-0.020646,1.000000,0.000039,-0.000119,-0.000053,-0.999868,0.003529,-0.005040,0.015030,-0.413076,0.571449,-1.724426,0.999497,-0.030091,-0.009974,0.030020,0.999523,-0.007209,0.010186,0.006906,0.999924
04092,2,0,-53.0000,9.544776,0.825079,-1.978267,0.007506,-0.062903,-0.030406,0.015782,-0.025728,-0.013831,0.175456,0.446615,-1.237428,0.095451,0.008246,-0.019770,1.000000,0.000079,-0.000129,-0.000069,-0.999868,0.003518,-0.005188,0.014958,-0.411963,0.588457,-1.716282,0.999499,-0.029949,-0.010270,0.029876,0.999528,-0.007190,0.010481,0.006879,0.999921
04093,2,0,-53.0000,9.583557,0.882913,-2.005603,-0.025686,-0.107335,0.017591,-0.001232,-0.032127,-0.014691,0.177727,0.452606,-1.240412,0.095839,0.008822,-0.020041,1.000000,-0.000006,-0.000161,-0.000073,-0.999867,0.003520,-0.005370,0.014967,-0.412532,0.609302,-1.717403,0.999494,-0.029968,-0.010634,0.029893,0.999527,-0.007200,0.010845,0.006878,0.999918
04094,2,0,-53.0000,9.568692,0.913029,-1.964452,0.001391,-0.150371,-0.003001,-0.005980,-0.029480,-0.008230,0.180197,0.447948,-1.239694,0.095690,0.009126,-0.019631,1.000000,-0.000030,-0.000147,-0.000041,-0.999866,0.003500,-0.005527,0.015009,-0.410517,0.627201,-1.722241,0.999488,-0.030052,-0.010946,0.029975,0.999525,-0.007164,0.011157,0.006833,0.999914
04095,2,0,-53.0000,9.603499,0.823915,-2.045333,-0.030670,-0.038539,0.040585,-0.013201,-0.028632,-0.009422,0.185236,0.450195,-1.245769,0.096038,0.008233,-0.020440,1.000000,-0.000066,-0.000143,-0.000047,-0.999864,0.003497,-0.005683,0.015087,-0.410486,0.645070,-1.731241,0.999480,-0.030209,-0.011258,0.030130,0.999520,-0.007164,0.011469,0.006821,0.999911
04096,2,0,-52.0000,9.608727,0.875958,-2.066507,-0.063579,-0.080173,0.054172,-0.002475,-0.035866,-0.005958,0.180228,0.449102,-1.241448,0.096091,0.008756,-0.020648,1.000000,-0.000012,-0.000179,-0.000030,-0.999863,0.003452,-0.005865,0.015116,-0.405665,0.666011,-1.734645,0.999474,-0.030269,-0.011624,0.030188,0.999519,-0.007080,0.011833,0.006725,0.999907
04097,2,0,-53.0000,9.554158,0.884284,-2.065178,-0.073896,-0.089470,0.001353,-0.009117,-0.033966,-0.000474,0.187058,0.447941,-1.243413,0.095545,0.008842,-0.020636,1.000000,-0.000046,-0.000170,-0.000002,-0.999861,0.003394,-0.006031,0.015174,-0.399386,0.685169,-1.741328,0.999467,-0.030385,-0.011958,0.030303,0.999516,-0.006970,0.012164,0.006604,0.999904
04098,2,0,-53.0000,9.550629,0.841173,-2.027299,-0.021973,-0.063860,-0.013327,-0.013313,-0.034927,-0.000230,0.174967,0.455862,-1.247561,0.095510,0.008410,-0.020257,1.000000,-0.000067,-0.000175,-0.000001,-0.999859,0.003336,-0.006199,0.015262,-0.393090,0.704484,-1.751403,0.999457,-0.030561,-0.012295,0.030478,0.999512,-0.006860,0.012499,0.006482,0.999901
04099,2,0,-53.0000,9.580252,0.839147,-2.059951,-0.041093,-0.051527,0.022172,-0.009770,-0.035986,-0.000088,0.184430,0.448731,-1.248343,0.095806,0.008390,-0.020583,1.000000,-0.000049,-0.000180,-0.000000,-0.999857,0.003274,-0.006374,0.015335,-0.386371,0.724596,-1.759765,0.999448,-0.030706,-0.012646,0.030623,0.999508,-0.006743,0.012847,0.006352,0.999897
04100,2,0,-53.0000,9.583619,0.799144,-2.076192,-0.038050,-0.009790,0.025677,-0.005854,-0.033220,0.002779,0.174732,0.443758,-1.241018,0.095840,0.007992,-0.020746,1.000000,-0.000029,-0.000166,0.000014,-0.999855,0.003197,-0.006529,0.015388,-0.377854,0.742451,-1.765921,0.999441,-0.030814,-0.012958,0.030730,0.999506,-0.006594,0.013155,0.006192,0.999894
04101,2,0,-53.0000,9.592968,0.810041,-2.110335,-0.067943,-0.009361,0.042768,0.004946,-0.029801,0.001976,0.184591,0.442723,-1.241385,0.095933,0.008102,-0.021089,1.000000,0.000025,-0.000149,0.000010,-0.999855,0.003119,-0.006671,0.015387,-0.369169,0.758854,-1.765735,0.999438,-0.030810,-0.013244,0.030727,0.999507,-0.006443,0.013436,0.006032,0.999892
04102,2,0,-53.0000,9.588305,0.849381,-2.100358,-0.070863,-0.051695,0.039259,0.016692,-0.031184,0.007772,0.185370,0.445429,-1.236059,0.095886,0.008499,-0.020988,1.000000,0.000083,-0.000156,0.000039,-0.999855,0.002998,-0.006808,0.015335,-0.355512,0.774751,-1.759728,0.999437,-0.030705,-0.013522,0.030624,0.999512,-0.006204,0.013705,0.005787,0.999889
04103,2,0,-52.0000,9.584549,0.840771,-2.126339,-0.089631,-0.036537,0.040354,0.008090,-0.030332,0.004320,0.175587,0.445835,-1.240453,0.095849,0.008411,-0.021249,1.000000,0.000040,-0.000152,0.000022,-0.999854,0.002905,-0.006949,0.015307,-0.345112,0.791134,-1.756545,0.999435,-0.030650,-0.013807,0.030569,0.999515,-0.006023,0.013985,0.005597,0.999887
04104,2,0,-52.0000,9.600345,0.866662,-2.114166,-0.081782,-0.066992,0.055254,-0.000673,-0.022049,0.009813,0.184398,0.446503,-1.243591,0.096005,0.008671,-0.021131,1.000000,-0.000003,-0.000110,0.000049,-0.999854,0.002809,-0.007040,0.015338,-0.334264,0.801643,-1.760101,0.999430,-0.030712,-0.013991,0.030633,0.999514,-0.005833,0.014163,0.005402,0.999885
04105,2,0,-52.0000,9.560582,0.809330,-2.091559,-0.048378,-0.023069,0.007266,-0.011566,-0.021415,0.007586,0.182304,0.441968,-1.244640,0.095608,0.008096,-0.020906,1.000000,-0.000058,-0.000107,0.000038,-0.999852,0.002738,-0.007132,0.015426,-0.326314,0.812385,-1.770089,0.999422,-0.030886,-0.014178,0.030808,0.999509,-0.005695,0.014347,0.005255,0.999883
04106,2,0,-52.0000,9.573360,0.827745,-2.101539,-0.059419,-0.038095,0.023261,-0.010276,-0.017368,0.006818,0.179952,0.451942,-1.249879,0.095735,0.008280,-0.021007,1.000000,-0.000051,-0.000087,0.000034,-0.999850,0.002673,-0.007206,0.015499,-0.319133,0.820894,-1.778488,0.999416,-0.031032,-0.014327,0.030955,0.999505,-0.005569,0.014493,0.005123,0.999882
04107,2,0,-53.0000,9.542801,0.829559,-2.073564,-0.040101,-0.050936,-0.012244,-0.015992,-0.015247,0.008816,0.186095,0.446415,-1.240460,0.095429,0.008298,-0.020729,1.000000,-0.000080,-0.000076,0.000044,-0.999848,0.002611,-0.007268,0.015604,-0.312218,0.828067,-1.790519,0.999407,-0.031242,-0.014452,0.031166,0.999499,-0.005449,0.014615,0.004995,0.999881
04108,2,0,-53.0000,9.593620,0.777748,-2.038652,0.022267,-0.016312,0.025899,-0.011927,-0.015561,0.007660,0.182937,0.447532,-1.239782,0.095937,0.007780,-0.020380,1.000000,-0.000060,-0.000078,0.000038,-0.999847,0.002548,-0.007331,0.015686,-0.305137,0.835436,-1.799858,0.999400,-0.031405,-0.014581,0.031330,0.999495,-0.005325,0.014740,0.004865,0.999880
04109,2,0,-53.0000,9.569866,0.782846,-2.064562,-0.007279,-0.013009,0.008584,-0.009382,-0.012793,0.008252,0.183109,0.447204,-1.247060,0.095700,0.007831,-0.020640,1.000000,-0.000047,-0.000064,0.000041,-0.999846,0.002486,-0.007383,0.015752,-0.298198,0.841489,-1.807351,0.999395,-0.031536,-0.014686,0.031462,0.999491,-0.005204,0.014843,0.004739,0.999879
04110,2,0,-53.0000,9.599899,0.780183,-2.095238,-0.026434,-0.000732,0.044090,-0.004528,-0.014161,0.002691,0.180022,0.448241,-1.247147,0.096000,0.007803,-0.020946,1.000000,-0.000023,-0.000071,0.000013,-0.999845,0.002440,-0.007449,0.015792,-0.293046,0.849058,-1.811925,0.999390,-0.031615,-0.014818,0.031543,0.999489,-0.005114,0.014972,0.004644,0.999877
04111,2,0,-54.0000,9.583394,0.753210,-2.110908,-0.034118,0.029170,0.029197,-0.007442,-0.006724,0.007100,0.189680,0.455920,-1.252965,0.095834,0.007535,-0.021106,1.000000,-0.000037,-0.000034,0.000035,-0.999844,0.002391,-0.007474,0.015852,-0.287534,0.851966,-1.818807,0.999386,-0.031735,-0.014869,0.031664,0.999486,-0.005018,0.015021,0.004544,0.999877
04112,2,0,-56.0000,9.569331,0.781755,-2.067453,-0.007056,-0.013865,0.008583,-0.003109,-0.008840,0.002831,0.184097,0.445341,-1.246773,0.095694,0.007819,-0.020670,1.000000,-0.000016,-0.000044,0.000014,-0.999843,0.002351,-0.007514,0.015884,-0.283098,0.856633,-1.822376,0.999383,-0.031798,-0.014951,0.031727,0.999484,-0.004940,0.015100,0.004463,0.999876
04113,2,0,-56.0000,9.558800,0.806119,-2.100919,-0.047703,-0.025282,0.007264,-0.010076,-0.005440,0.003471,0.182183,0.447141,-1.245114,0.095588,0.008062,-0.021007,1.000000,-0.000050,-0.000027,0.000017,-0.999842,0.002325,-0.007540,0.015942,-0.280139,0.859624,-1.829068,0.999378,-0.031914,-0.015003,0.031844,0.999481,-0.004889,0.015151,0.004408,0.999876
04114,2,0,-57.0000,9.582244,0.800612,-2.076664,-0.017981,-0.029142,0.024575,-0.008122,-0.003722,-0.002610,0.178734,0.452962,-1.248619,0.095823,0.008004,-0.020765,1.000000,-0.000041,-0.000019,-0.000013,-0.999841,0.002324,-0.007565,0.015990,-0.280152,0.862529,-1.834619,0.999374,-0.032011,-0.015053,0.031941,0.999478,-0.004889,0.015202,0.004405,0.999875
04115,2,0,-56.0000,9.592872,0.764385,-2.144056,-0.063769,0.028779,0.046296,-0.008123,-0.003722,-0.002610,0.185309,0.450976,-1.241789,0.095929,0.007642,-0.021439,1.000000,-0.000041,-0.000019,-0.000013,-0.999840,0.002326,-0.007592,0.016050,-0.280463,0.865600,-1.841490,0.999369,-0.032131,-0.015107,0.032060,0.999474,-0.004894,0.015256,0.004407,0.999874
04116,2,0,-56.0000,9.568873,0.782689,-2.069220,-0.006722,-0.014959,0.008582,-0.000242,-0.006900,-0.006746,0.186925,0.443842,-1.247130,0.095690,0.007824,-0.020689,1.000000,-0.000001,-0.000034,-0.000034,-0.999839,0.002330,-0.007639,0.016057,-0.281067,0.871024,-1.842293,0.999368,-0.032145,-0.015202,0.032074,0.999473,-0.004905,0.015351,0.004414,0.999872
04117,2,0,-55.0000,9.599001,0.781056,-2.099021,-0.025819,-0.002644,0.044092,-0.004662,-0.000734,-0.005513,0.183716,0.447719,-1.254931,0.095990,0.007807,-0.020990,1.000000,-0.000023,-0.000004,-0.000028,-0.999839,0.002346,-0.007658,0.016078,-0.282972,0.873168,-1.844706,0.999366,-0.032187,-0.015239,0.032115,0.999472,-0.004938,0.015390,0.004446,0.999872
04118,2,0,-54.0000,9.577792,0.842779,-2.064841,-0.020644,-0.072276,0.021045,-0.003408,-0.002013,-0.004153,0.180228,0.451001,-1.254432,0.095778,0.008425,-0.020648,1.000000,-0.000017,-0.000010,-0.000021,-0.999838,0.002351,-0.007679,0.016101,-0.283507,0.875450,-1.847370,0.999364,-0.032233,-0.015279,0.032161,0.999470,-0.004948,0.015430,0.004453,0.999871
04119,2,0,-53.0000,9.548203,0.797886,-2.071759,-0.017224,-0.027642,-0.009834,-0.006210,-0.007329,-0.006562,0.181583,0.449697,-1.244735,0.095483,0.007975,-0.020714,1.000000,-0.000031,-0.000037,-0.000033,-0.999837,0.002362,-0.007729,0.016141,-0.284917,0.881243,-1.852000,0.999359,-0.032314,-0.015380,0.032241,0.999468,-0.004972,0.015532,0.004473,0.999869
04120,2,0,-53.0000,9.571582,0.793007,-2.047608,0.012498,-0.031509,0.007475,-0.004917,-0.003283,-0.007330,0.184168,0.446734,-1.245040,0.095716,0.007926,-0.020475,1.000000,-0.000025,-0.000016,-0.000037,-0.999836,0.002380,-0.007761,0.016169,-0.287091,0.884805,-1.855205,0.999357,-0.032370,-0.015442,0.032296,0.999466,-0.005010,0.015596,0.004508,0.999868
04121,2,0,-53.0000,9.544330,0.803833,-1.995866,0.050694,-0.059767,-0.029144,-0.002918,-0.010940,-0.008246,0.183049,0.449378,-1.242303,0.095445,0.008034,-0.019954,1.000000,-0.000015,-0.000055,-0.000041,-0.999835,0.002390,-0.007832,0.016192,-0.288360,0.892911,-1.857903,0.999353,-0.032417,-0.015584,0.032342,0.999464,-0.005032,0.015738,0.004525,0.999866
04122,2,0,-53.0000,9.577520,0.810357,-2.003252,0.050427,-0.062934,0.005260,-0.015463,-0.008497,-0.009621,0.190447,0.458005,-1.249134,0.095776,0.008097,-0.020029,1.000000,-0.000077,-0.000042,-0.000048,-0.999834,0.002421,-0.007892,0.016271,-0.292152,0.899695,-1.866978,0.999346,-0.032575,-0.015702,0.032499,0.999459,-0.005098,0.015860,0.004585,0.999864
04123,2,0,-54.0000,9.574850,0.755877,-2.063053,0.015775,0.009738,0.011005,-0.001145,-0.011470,-0.008180,0.186005,0.445563,-1.241939,0.095750,0.007555,-0.020625,1.000000,-0.000006,-0.000057,-0.000041,-0.999833,0.002429,-0.007966,0.016284,-0.293196,0.908138,-1.868470,0.999343,-0.032601,-0.015849,0.032524,0.999458,-0.005117,0.016008,0.004598,0.999861
04124,2,0,-54.0000,9.594318,0.779109,-2.126515,-0.044138,0.010848,0.045200,0.007382,-0.012621,-0.012703,0.181809,0.446671,-1.249778,0.095945,0.007786,-0.021259,1.000000,0.000037,-0.000063,-0.000064,-0.999833,0.002443,-0.008050,0.016250,-0.294915,0.917800,-1.864573,0.999342,-0.032533,-0.016018,0.032454,0.999460,-0.005147,0.016177,0.004623,0.999858
04125,2,0,-54.0000,9.576039,0.849143,-2.070355,-0.020053,-0.074185,0.021032,0.002706,-0.009006,-0.013285,0.182593,0.445455,-1.237960,0.095762,0.008485,-0.020699,1.000000,0.000014,-0.000045,-0.000066,-0.999832,0.002472,-0.008121,0.016234,-0.298402,0.925829,-1.862887,0.999341,-0.032504,-0.016158,0.032423,0.999461,-0.005207,0.016319,0.004680,0.999856
04126,2,0,-54.0000,9.542244,0.844920,-2.064875,-0.019664,-0.071612,-0.013376,-0.002264,-0.013265,-0.013557,0.190321,0.450231,-1.239369,0.095424,0.008442,-0.020643,1.000000,-0.000011,-0.000066,-0.000068,-0.999831,0.002500,-0.008210,0.016246,-0.301700,0.935971,-1.864326,0.999337,-0.032529,-0.016335,0.032446,0.999460,-0.005265,0.016497,0.004731,0.999853
04127,2,0,-53.0000,9.586620,0.779618,-2.075646,0.005011,-0.006107,0.026994,-0.021172,-0.010731,-0.012539,0.182581,0.444621,-1.231715,0.095868,0.007788,-0.020752,1.000000,-0.000106,-0.000054,-0.000063,-0.999829,0.002550,-0.008287,0.016349,-0.307674,0.944775,-1.876100,0.999328,-0.032734,-0.016489,0.032649,0.999452,-0.005369,0.016655,0.004827,0.999850
04128,2,0,-52.0000,9.595165,0.653359,-2.138803,-0.004791,0.135124,0.038722,0.000027,-0.013044,-0.014785,0.189471,0.443186,-1.251421,0.095954,0.006526,-0.021382,1.000000,0.000000,-0.000065,-0.000074,-0.999828,0.002580,-0.008377,0.016348,-0.311365,0.955035,-1.876109,0.999325,-0.032734,-0.016668,0.032647,0.999452,-0.005434,0.016836,0.004886,0.999846
04129,2,0,-51.0000,9.616401,0.768470,-2.206961,-0.100653,0.052904,0.082941,0.018271,-0.002895,-0.022711,0.187706,0.445537,-1.245050,0.096165,0.007676,-0.022068,1.000000,0.000091,-0.000014,-0.000114,-0.999829,0.002646,-0.008436,0.016240,-0.318892,0.961617,-1.863742,0.999330,-0.032518,-0.016783,0.032429,0.999459,-0.005565,0.016954,0.005017,0.999844
04130,2,0,-51.0000,9.543553,0.894843,-2.109194,-0.071196,-0.098611,0.001285,0.008751,-0.002267,-0.022655,0.188334,0.450605,-1.254174,0.095437,0.008939,-0.021090,1.000000,0.000044,-0.000011,-0.000113,-0.999829,0.002721,-0.008489,0.016184,-0.327569,0.967550,-1.857523,0.999332,-0.032410,-0.016886,0.032317,0.999461,-0.005716,0.017062,0.005167,0.999841
04131,2,0,-51.0000,9.563641,0.883589,-2.107871,-0.060303,-0.087018,0.019701,-0.013868,-0.005280,-0.020546,0.178571,0.452589,-1.243839,0.095638,0.008825,-0.021077,1.000000,-0.000069,-0.000026,-0.000103,-0.999828,0.002808,-0.008555,0.016235,-0.337718,0.974929,-1.863376,0.999327,-0.032512,-0.017015,0.032416,0.999457,-0.005893,0.017197,0.005338,0.999838
04132,2,0,-52.0000,9.600896,0.851619,-2.127605,-0.057560,-0.048163,0.057648,-0.023480,-0.000603,-0.023525,0.185898,0.453291,-1.239169,0.096010,0.008502,-0.021277,1.000000,-0.000117,-0.000003,-0.000118,-0.999825,0.002926,-0.008601,0.016335,-0.351338,0.980019,-1.875050,0.999318,-0.032715,-0.017104,0.032615,0.999449,-0.006131,0.017295,0.005569,0.999835
04133,2,0,-53.0000,9.609490,0.738518,-2.089691,0.019304,0.046108,0.048956,-0.028588,-0.001790,-0.019776,0.178982,0.449031,-1.244677,0.096096,0.007373,-0.020897,1.000000,-0.000143,-0.000009,-0.000099,-0.999822,0.003032,-0.008648,0.016481,-0.363793,0.985181,-1.891864,0.999307,-0.033008,-0.017194,0.032903,0.999438,-0.006348,0.017394,0.005778,0.999832
04134,2,0,-55.0000,9.613652,0.688884,-2.202541,-0.064245,0.134863,0.072945,-0.001257,0.002945,-0.023430,0.191670,0.447357,-1.240657,0.096137,0.006877,-0.022027,1.000000,-0.000006,0.000015,-0.000117,-0.999822,0.003131,-0.008678,0.016472,-0.375127,0.988408,-1.890948,0.999307,-0.032992,-0.017250,0.032884,0.999438,-0.006546,0.017456,0.005974,0.999830
04135,2,0,-57.0000,9.553228,0.870292,-2.176062,-0.116628,-0.041786,0.023037,0.004489,0.006160,-0.027561,0.188859,0.452086,-1.245547,0.095533,0.008690,-0.021763,1.000000,0.000022,0.000031,-0.000138,-0.999822,0.003249,-0.008702,0.016429,-0.388698,0.990928,-1.886193,0.999309,-0.032909,-0.017294,0.032796,0.999439,-0.006783,0.017508,0.006211,0.999827
04136,2,0,-57.0000,9.606654,0.877275,-2.080583,-0.019488,-0.080138,0.055415,-0.007706,0.002740,-0.029002,0.179909,0.450167,-1.249620,0.096068,0.008758,-0.020807,1.000000,-0.000039,0.000014,-0.000145,-0.999821,0.003380,-0.008742,0.016446,-0.403771,0.995289,-1.888275,0.999306,-0.032946,-0.017370,0.032827,0.999436,-0.007046,0.017593,0.006471,0.999824
04137,2,0,-56.0000,9.577216,0.834492,-2.086497,-0.016053,-0.035486,0.024558,-0.017238,0.007706,-0.024017,0.187159,0.448340,-1.237442,0.095772,0.008332,-0.020869,1.000000,-0.000086,0.000039,-0.000120,-0.999819,0.003508,-0.008752,0.016517,-0.418594,0.996187,-1.896519,0.999301,-0.033089,-0.017386,0.032967,0.999430,-0.007305,0.017618,0.006726,0.999822
04138,2,0,-54.0000,9.581283,0.797120,-2.098825,-0.012977,0.006245,0.028108,-0.016110,0.005155,-0.023566,0.187411,0.446158,-1.244987,0.095813,0.007958,-0.020991,1.000000,-0.000081,0.000026,-0.000118,-0.999817,0.003627,-0.008772,0.016580,-0.432333,0.998183,-1.903818,0.999296,-0.033217,-0.017421,0.033089,0.999424,-0.007544,0.017661,0.006963,0.999820
04139,2,0,-53.0000,9.556692,0.853090,-2.086668,-0.026664,-0.047904,0.006136,-0.013177,0.007402,-0.025176,0.178772,0.449580,-1.241635,0.095567,0.008517,-0.020871,1.000000,-0.000066,0.000037,-0.000126,-0.999816,0.003756,-0.008786,0.016618,-0.447130,0.999561,-1.908336,0.999293,-0.033296,-0.017445,0.033164,0.999419,-0.007803,0.017694,0.007219,0.999817
04140,2,0,-53.0000,9.577030,0.842578,-2.084097,-0.015818,-0.036351,0.024555,-0.013922,0.009432,-0.027824,0.182953,0.452235,-1.242532,0.095770,0.008411,-0.020846,1.000000,-0.000070,0.000047,-0.000139,-0.999815,0.003899,-0.008793,0.016664,-0.463610,1.000049,-1.913745,0.999290,-0.033390,-0.017453,0.033253,0.999414,-0.008090,0.017713,0.007504,0.999815
04141,2,0,-54.0000,9.608965,0.759697,-2.084509,0.019964,0.043854,0.048965,-0.012161,0.013249,-0.022829,0.187841,0.456416,-1.247576,0.096089,0.007585,-0.020852,1.000000,-0.000061,0.000066,-0.000114,-0.999814,0.004026,-0.008775,0.016717,-0.478156,0.997674,-1.920005,0.999287,-0.033499,-0.017412,0.033358,0.999409,-0.008344,0.017681,0.007757,0.999814
04142,2,0,-56.0000,9.560851,0.821277,-2.096496,-0.023439,-0.006728,0.009688,0.006666,0.010458,-0.031809,0.180087,0.446564,-1.237922,0.095609,0.008198,-0.020970,1.000000,0.000033,0.000052,-0.000159,-0.999814,0.004167,-0.008784,0.016658,-0.494250,0.998452,-1.913389,0.999291,-0.033384,-0.017425,0.033237,0.999410,-0.008625,0.017703,0.008040,0.999811
04143,2,0,-58.0000,9.541910,0.928622,-2.102014,-0.070152,-0.102185,0.001256,-0.001348,0.012341,-0.028577,0.178805,0.451381,-1.230905,0.095419,0.009272,-0.021026,1.000000,-0.000007,0.000062,-0.000143,-0.999814,0.004307,-0.008780,0.016645,-0.510252,0.997769,-1.911969,0.999292,-0.033359,-0.017413,0.033208,0.999409,-0.008904,0.017700,0.008320,0.999809
04144,2,0,-56.0000,9.575333,0.936902,-2.107411,-0.070416,-0.105371,0.035658,-0.012938,0.009950,-0.023354,0.182559,0.454178,-1.238952,0.095753,0.009356,-0.021079,1.000000,-0.000065,0.000050,-0.000117,-0.999812,0.004429,-0.008777,0.016690,-0.524340,0.997134,-1.917305,0.999289,-0.033452,-0.017402,0.033296,0.999404,-0.009150,0.017698,0.008564,0.999807
04145,2,0,-54.0000,9.561255,0.968153,-2.062108,-0.043370,-0.148351,0.014994,-0.012941,0.009951,-0.023353,0.188314,0.449645,-1.235442,0.095613,0.009669,-0.020626,1.000000,-0.000065,0.000050,-0.000117,-0.999811,0.004554,-0.008775,0.016751,-0.538733,0.996645,-1.924394,0.999285,-0.033576,-0.017394,0.033416,0.999397,-0.009401,0.017699,0.008813,0.999805
04146,2,0,-53.0000,9.541872,0.936188,-2.098830,-0.069950,-0.103021,0.001249,-0.026434,0.006809,-0.019106,0.177302,0.455942,-1.235577,0.095419,0.009350,-0.020993,1.000000,-0.000132,0.000034,-0.000096,-0.999808,0.004667,-0.008779,0.016868,-0.551761,0.996835,-1.937906,0.999277,-0.033811,-0.017397,0.033647,0.999387,-0.009628,0.017712,0.009036,0.999802
04147,2,0,-52.0000,9.575274,0.944121,-2.104454,-0.070178,-0.106159,0.035651,-0.025051,0.006805,-0.016838,0.184879,0.452528,-1.240199,0.095753,0.009431,-0.021049,1.000000,-0.000125,0.000034,-0.000084,-0.999806,0.004770,-0.008781,0.016988,-0.563706,0.996806,-1.951808,0.999269,-0.034054,-0.017397,0.033886,0.999377,-0.009837,0.017721,0.009240,0.999800
04148,2,0,-52.0000,9.573913,0.854848,-2.098665,-0.034082,-0.023112,0.025670,-0.025836,0.007849,-0.012435,0.183079,0.451144,-1.246305,0.095739,0.008540,-0.020992,1.000000,-0.000129,0.000039,-0.000062,-0.999803,0.004853,-0.008769,0.017109,-0.573327,0.995175,-1.965684,0.999261,-0.034296,-0.017368,0.034126,0.999367,-0.010005,0.017700,0.009405,0.999799
04149,2,0,-52.0000,9.502872,0.884984,-2.071613,-0.036364,-0.059616,-0.046702,-0.012633,0.007460,-0.011447,0.189093,0.464162,-1.231115,0.095028,0.008843,-0.020720,1.000000,-0.000063,0.000037,-0.000057,-0.999802,0.004919,-0.008759,0.017165,-0.580838,0.993866,-1.972199,0.999257,-0.034409,-0.017345,0.034237,0.999362,-0.010136,0.017683,0.009534,0.999798
04150,2,0,-54.0000,9.532065,0.932192,-2.064231,-0.039654,-0.104834,-0.015865,-0.018341,0.005222,-0.014373,0.186083,0.448739,-1.236961,0.095321,0.009313,-0.020646,1.000000,-0.000092,0.000026,-0.000072,-0.999800,0.004998,-0.008762,0.017248,-0.590027,0.994060,-1.981777,0.999251,-0.034576,-0.017349,0.034401,0.999355,-0.010296,0.017694,0.009692,0.999796
04151,2,0,-56.0000,9.559879,0.888233,-2.052119,-0.006849,-0.066645,0.004998,-0.019249,0.004990,-0.010880,0.179013,0.454603,-1.238940,0.095599,0.008875,-0.020524,1.000000,-0.000096,0.000025,-0.000054,-0.999798,0.005065,-0.008764,0.017338,-0.597836,0.994025,-1.992217,0.999245,-0.034759,-0.017348,0.034581,0.999347,-0.010432,0.017699,0.009825,0.999795
04152,2,0,-58.0000,9.570873,0.853233,-2.118631,-0.052615,-0.008759,0.026792,-0.021419,0.006038,-0.008743,0.187110,0.458926,-1.234185,0.095708,0.008526,-0.021190,1.000000,-0.000107,0.000030,-0.000044,-0.999796,0.005124,-0.008754,0.017442,-0.604606,0.992696,-2.004111,0.999238,-0.034966,-0.017325,0.034787,0.999339,-0.010551,0.017682,0.009940,0.999794
04153,2,0,-57.0000,9.499823,0.883287,-2.091547,-0.054905,-0.045228,-0.045582,-0.012869,0.010249,-0.015382,0.191575,0.448741,-1.243383,0.094998,0.008824,-0.020921,1.000000,-0.000064,0.000051,-0.000077,-0.999795,0.005213,-0.008737,0.017504,-0.614884,0.990601,-2.011318,0.999235,-0.035092,-0.017288,0.034909,0.999333,-0.010730,0.017653,0.010118,0.999793
04154,2,0,-56.0000,9.537152,0.862567,-2.010240,0.034462,-0.053453,-0.028092,-0.019485,0.007777,-0.014816,0.182770,0.454702,-1.244990,0.095371,0.008617,-0.020107,1.000000,-0.000097,0.000039,-0.000074,-0.999793,0.005300,-0.008729,0.017591,-0.624922,0.989483,-2.021372,0.999229,-0.035267,-0.017269,0.035082,0.999325,-0.010905,0.017642,0.010291,0.999791
04155,2,0,-55.0000,9.577318,0.873799,-2.069870,-0.014598,-0.040464,0.024541,-0.014900,0.008232,-0.017266,0.182668,0.457035,-1.238226,0.095773,0.008728,-0.020703,1.000000,-0.000075,0.000041,-0.000086,-0.999792,0.005396,-0.008726,0.017640,-0.635904,0.988915,-2.027125,0.999225,-0.035367,-0.017259,0.035179,0.999319,-0.011097,0.017640,0.010481,0.999789
04156,2,0,-54.0000,9.597763,0.862324,-2.067377,-0.003747,-0.028924,0.042964,-0.009959,0.007173,-0.014868,0.178956,0.454079,-1.232186,0.095978,0.008615,-0.020678,1.000000,-0.000050,0.000036,-0.000074,-0.999791,0.005471,-0.008722,0.017681,-0.644622,0.988190,-2.031863,0.999223,-0.035450,-0.017246,0.035259,0.999315,-0.011249,0.017633,0.010632,0.999788
04157,2,0,-54.0000,9.548217,0.831758,-2.074916,-0.011092,0.003918,-0.006292,-0.008539,0.008161,-0.019650,0.181994,0.452244,-1.243325,0.095482,0.008307,-0.020753,1.000000,-0.000043,0.000041,-0.000098,-0.999789,0.005572,-0.008722,0.017720,-0.656165,0.988016,-2.036469,0.999220,-0.035530,-0.017243,0.035336,0.999310,-0.011450,0.017638,0.010832,0.999786
04158,2,0,-52.0000,9.574193,0.871757,-2.090413,-0.033257,-0.025857,0.025666,-0.003205,0.006583,-0.019453,0.184227,0.459715,-1.240309,0.095742,0.008708,-0.020907,1.000000,-0.000016,0.000033,-0.000097,-0.999789,0.005660,-0.008728,0.017724,-0.666317,0.988516,-2.036939,0.999219,-0.035539,-0.017252,0.035341,0.999308,-0.011627,0.017653,0.011009,0.999784
04159,2,0,-52.0000,9.591543,0.852816,-2.110690,-0.041235,0.001173,0.045218,-0.008918,0.014013,-0.019563,0.177388,0.454611,-1.242836,0.095915,0.008518,-0.021114,1.000000,-0.000045,0.000070,-0.000098,-0.999788,0.005770,-0.008701,0.017754,-0.678877,0.985198,-2.040539,0.999218,-0.035601,-0.017194,0.035401,0.999303,-0.011847,0.017604,0.011229,0.999782
04160,2,0,-51.0000,9.527221,0.887052,-2.137245,-0.092423,-0.019179,-0.008927,-0.006751,0.012969,-0.021697,0.185254,0.454072,-1.238531,0.095272,0.008859,-0.021379,1.000000,-0.000034,0.000065,-0.000108,-0.999787,0.005883,-0.008681,0.017770,-0.691837,0.982643,-2.042454,0.999218,-0.035635,-0.017150,0.035430,0.999299,-0.012073,0.017568,0.011456,0.999780
04161,2,0,-52.0000,9.563849,0.902757,-2.119414,-0.073780,-0.037797,0.024346,-0.006238,0.013724,-0.022986,0.181539,0.449395,-1.241979,0.095638,0.009016,-0.021201,1.000000,-0.000031,0.000069,-0.000115,-0.999786,0.006005,-0.008661,0.017785,-0.705754,0.980119,-2.044289,0.999217,-0.035667,-0.017105,0.035459,0.999295,-0.012316,0.017533,0.011699,0.999778
04162,2,0,-53.0000,9.533635,0.906941,-2.088587,-0.054533,-0.050640,-0.011187,-0.012607,0.013793,-0.020602,0.185085,0.462254,-1.240493,0.095336,0.009058,-0.020893,1.000000,-0.000063,0.000069,-0.000103,-0.999785,0.006121,-0.008635,0.017830,-0.719046,0.976870,-2.049567,0.999215,-0.035759,-0.017049,0.035547,0.999289,-0.012548,0.017485,0.011932,0.999776
04163,2,0,-54.0000,9.570977,0.886527,-2.006873,0.034876,-0.058850,0.006294,-0.009443,0.013261,-0.018269,0.185855,0.455536,-1.236912,0.095709,0.008856,-0.020075,1.000000,-0.000047,0.000066,-0.000091,-0.999784,0.006224,-0.008610,0.017862,-0.730828,0.973730,-2.053272,0.999214,-0.035824,-0.016994,0.035609,0.999284,-0.012753,0.017439,0.012138,0.999774
04164,2,0,-54.0000,9.544405,0.886282,-2.053247,-0.013595,-0.040076,-0.009871,-0.002328,0.011161,-0.018006,0.175397,0.458515,-1.233920,0.095444,0.008854,-0.020538,1.000000,-0.000012,0.000056,-0.000090,-0.999784,0.006313,-0.008592,0.017861,-0.740937,0.971486,-2.053201,0.999214,-0.035822,-0.016955,0.035605,0.999282,-0.012930,0.017406,0.012316,0.999773
04165,2,0,-56.0000,9.514172,0.889700,-2.022762,0.005683,-0.052869,-0.045407,0.011007,0.012059,-0.016102,0.185041,0.453514,-1.247225,0.095141,0.008890,-0.020233,1.000000,0.000055,0.000060,-0.000081,-0.999784,0.006382,-0.008568,0.017804,-0.748763,0.968685,-2.046766,0.999219,-0.035710,-0.016906,0.035491,0.999285,-0.013066,0.017360,0.012456,0.999772
04166,2,0,-56.0000,9.590971,0.914110,-2.065694,-0.024877,-0.058273,0.040505,0.005422,0.011089,-0.018121,0.184090,0.459573,-1.235785,0.095909,0.009133,-0.020662,1.000000,0.000027,0.000055,-0.000091,-0.999785,0.006462,-0.008551,0.017765,-0.757915,0.966559,-2.042342,0.999223,-0.035633,-0.016869,0.035412,0.999285,-0.013226,0.017328,0.012618,0.999770
04167,2,0,-56.0000,9.545713,0.982128,-2.054943,-0.049407,-0.124218,0.000066,0.008856,0.008768,-0.018899,0.181095,0.458118,-1.244880,0.095457,0.009813,-0.020553,1.000000,0.000044,0.000044,-0.000094,-0.999785,0.006541,-0.008548,0.017704,-0.766836,0.966130,-2.035464,0.999227,-0.035513,-0.016861,0.035289,0.999288,-0.013382,0.017325,0.012776,0.999768
04168,2,0,-56.0000,9.579166,0.989451,-2.060501,-0.049667,-0.127427,0.034464,-0.001461,0.010399,-0.014449,0.182710,0.458348,-1.237736,0.095791,0.009887,-0.020610,1.000000,-0.000007,0.000052,-0.000072,-0.999785,0.006611,-0.008528,0.017703,-0.774818,0.963634,-2.035336,0.999228,-0.035511,-0.016818,0.035285,0.999286,-0.013521,0.017286,0.012917,0.999767
04169,2,0,-55.0000,9.566268,0.971662,-2.051488,-0.038458,-0.112940,0.018487,-0.003004,0.008135,-0.010581,0.180909,0.462855,-1.233854,0.095662,0.009711,-0.020519,1.000000,-0.000015,0.000041,-0.000053,-0.999785,0.006663,-0.008513,0.017717,-0.780807,0.961829,-2.037026,0.999227,-0.035540,-0.016786,0.035313,0.999283,-0.013625,0.017259,0.013022,0.999766
04170,2,0,-55.0000,9.550333,0.945942,-2.065361,-0.046150,-0.083042,0.003644,-0.008612,0.011499,-0.007668,0.184835,0.462564,-1.240938,0.095503,0.009455,-0.020660,1.000000,-0.000043,0.000057,-0.000038,-0.999784,0.006712,-0.008476,0.017757,-0.786338,0.957403,-2.041605,0.999226,-0.035620,-0.016709,0.035393,0.999279,-0.013722,0.017186,0.013120,0.999766
04171,2,0,-55.0000,9.521466,0.901071,-2.071082,-0.042686,-0.038333,-0.027171,-0.007470,0.008947,-0.007223,0.185165,0.455767,-1.240510,0.095214,0.009006,-0.020715,1.000000,-0.000037,0.000045,-0.000036,-0.999783,0.006756,-0.008451,0.017801,-0.791421,0.954509,-2.046700,0.999223,-0.035709,-0.016659,0.035481,0.999275,-0.013811,0.017140,0.013209,0.999766
04172,2,0,-54.0000,9.547484,0.939992,-2.086482,-0.064858,-0.068112,0.004776,-0.004034,0.006627,-0.008001,0.182140,0.459511,-1.238612,0.095475,0.009396,-0.020868,1.000000,-0.000020,0.000033,-0.000040,-0.999783,0.006793,-0.008437,0.017820,-0.795646,0.952816,-2.048904,0.999222,-0.035748,-0.016629,0.035518,0.999273,-0.013884,0.017113,0.013283,0.999765
04173,2,0,-54.0000,9.581682,0.910654,-2.028331,0.005690,-0.060887,0.023384,-0.007985,0.008193,-0.005933,0.184342,0.452545,-1.235339,0.095816,0.009103,-0.020288,1.000000,-0.000040,0.000041,-0.000030,-0.999782,0.006830,-0.008415,0.017857,-0.799833,0.950117,-2.053170,0.999221,-0.035822,-0.016582,0.035592,0.999269,-0.013957,0.017070,0.013356,0.999765
04174,2,0,-55.0000,9.601629,0.933903,-2.089428,-0.054212,-0.059758,0.057604,-0.003939,0.012234,-0.002156,0.180661,0.466573,-1.230055,0.096015,0.009338,-0.020900,1.000000,-0.000020,0.000061,-0.000011,-0.999782,0.006849,-0.008364,0.017880,-0.801984,0.944287,-2.055707,0.999221,-0.035866,-0.016480,0.035637,0.999267,-0.013995,0.016970,0.013397,0.999766
04175,2,0,-56.0000,9.575877,0.896367,-2.072212,-0.031876,-0.030512,0.025657,-0.005692,0.008424,-0.007156,0.187324,0.465404,-1.236479,0.095758,0.008960,-0.020726,1.000000,-0.000028,0.000042,-0.000036,-0.999781,0.006890,-0.008343,0.017912,-0.806659,0.941696,-2.059386,0.999219,-0.035930,-0.016435,0.035701,0.999263,-0.014076,0.016929,0.013479,0.999766
04176,2,0,-56.0000,9.571605,0.936996,-2.057963,-0.034870,-0.072833,0.022061,-0.003034,0.012473,-0.005645,0.175080,0.463847,-1.233103,0.095715,0.009367,-0.020586,1.000000,-0.000015,0.000062,-0.000028,-0.999781,0.006925,-0.008297,0.017926,-0.810577,0.936403,-2.061017,0.999220,-0.035959,-0.016343,0.035729,0.999261,-0.014145,0.016839,0.013550,0.999766
04177,2,0,-54.0000,9.545877,0.899394,-2.040667,-0.012541,-0.043569,-0.009885,-0.010552,0.009751,-0.001599,0.181282,0.458445,-1.235931,0.095458,0.008992,-0.020412,1.000000,-0.000053,0.000049,-0.000008,-0.999780,0.006949,-0.008259,0.017996,-0.813288,0.931965,-2.069028,0.999216,-0.036099,-0.016265,0.035869,0.999256,-0.014192,0.016765,0.013598,0.999767
04178,2,0,-54.0000,9.525581,0.913036,-2.041386,-0.023284,-0.055688,-0.028315,-0.000111,0.009397,-0.005133,0.178511,0.464887,-1.234837,0.095255,0.009128,-0.020418,1.000000,-0.000001,0.000047,-0.000026,-0.999780,0.006973,-0.008228,0.017998,-0.815997,0.928262,-2.069223,0.999217,-0.036102,-0.016201,0.035873,0.999255,-0.014239,0.016703,0.013647,0.999767
04179,2,0,-54.0000,9.563580,0.879470,-2.060128,-0.020449,-0.016823,0.009683,-0.004306,0.008418,-0.004889,0.186704,0.460462,-1.239841,0.095635,0.008792,-0.020605,1.000000,-0.000022,0.000042,-0.000024,-0.999779,0.007002,-0.008202,0.018032,-0.819309,0.925202,-2.073108,0.999215,-0.036170,-0.016147,0.035940,0.999252,-0.014297,0.016652,0.013706,0.999767
04180,2,0,-54.0000,9.525879,0.914005,-2.039561,-0.023133,-0.056219,-0.028318,0.004205,0.011650,-0.004465,0.179953,0.458693,-1.235147,0.095258,0.009138,-0.020401,1.000000,0.000021,0.000058,-0.000022,-0.999780,0.007023,-0.008158,0.018012,-0.821518,0.920188,-2.070853,0.999218,-0.036131,-0.016060,0.035902,0.999253,-0.014336,0.016566,0.013748,0.999768
04181,2,0,-54.0000,9.589873,0.918465,-2.074181,-0.042517,-0.046855,0.041624,0.005232,0.013161,-0.007042,0.188692,0.463461,-1.235523,0.095898,0.009182,-0.020748,1.000000,0.000026,0.000066,-0.000035,-0.999780,0.007059,-0.008114,0.017982,-0.825534,0.915127,-2.067464,0.999222,-0.036072,-0.015971,0.035843,0.999254,-0.014406,0.016479,0.013822,0.999769
04182,2,0,-54.0000,9.566686,0.924124,-2.097286,-0.072122,-0.043511,0.024335,0.013319,0.021246,0.000517,0.177514,0.462172,-1.244861,0.095665,0.009243,-0.020982,1.000000,0.000067,0.000106,0.000003,-0.999782,0.007062,-0.008017,0.017920,-0.825689,0.904056,-2.060203,0.999229,-0.035945,-0.015778,0.035719,0.999258,-0.014409,0.016284,0.013834,0.999772
04183,2,0,-54.0000,9.576208,0.946792,-2.026763,-0.015436,-0.090130,0.020907,0.015486,0.014870,0.000496,0.181392,0.460043,-1.245443,0.095761,0.009470,-0.020274,1.000000,0.000077,0.000074,0.000002,-0.999784,0.007056,-0.007953,0.017852,-0.824772,0.896718,-2.052314,0.999236,-0.035808,-0.015650,0.035583,0.999263,-0.014393,0.016154,0.013825,0.999774
04184,2,0,-54.0000,9.560479,0.919565,-2.040576,-0.023119,-0.060224,0.006077,0.015601,0.010808,0.003519,0.181986,0.467088,-1.234584,0.095604,0.009199,-0.020410,1.000000,0.000078,0.000054,0.000018,-0.999786,0.007026,-0.007900,0.017785,-0.821147,0.890744,-2.044599,0.999243,-0.035673,-0.015546,0.035451,0.999269,-0.014329,0.016046,0.013768,0.999776
04185,2,0,-54.0000,9.581186,0.905790,-2.037973,-0.012214,-0.048642,0.024507,0.011920,0.010584,0.002473,0.184269,0.454710,-1.234325,0.095811,0.009060,-0.020384,1.000000,0.000060,0.000053,0.000012,-0.999787,0.007007,-0.007851,0.017742,-0.818888,0.885292,-2.039607,0.999247,-0.035586,-0.015451,0.035366,0.999272,-0.014290,0.015948,0.013733,0.999779
04186,2,0,-54.0000,9.557936,0.910770,-2.061724,-0.041819,-0.045294,0.007219,0.013819,0.011333,0.003452,0.180210,0.458081,-1.231706,0.095578,0.009111,-0.020622,1.000000,0.000069,0.000057,0.000017,-0.999789,0.006980,-0.007796,0.017684,-0.815625,0.879032,-2.032858,0.999253,-0.035468,-0.015341,0.035251,0.999277,-0.014233,0.015835,0.013682,0.999781
04187,2,0,-54.0000,9.564248,0.925602,-2.014908,-0.003993,-0.076472,0.004928,0.009504,0.009080,0.002783,0.183626,0.453619,-1.241678,0.095641,0.009258,-0.020153,1.000000,0.000048,0.000045,0.000014,-0.999790,0.006959,-0.007754,0.017642,-0.813129,0.874362,-2.028080,0.999257,-0.035385,-0.015260,0.035169,0.999281,-0.014190,0.015751,0.013642,0.999783
04188,2,0,-54.0000,9.581879,0.904282,-2.035382,-0.011987,-0.049494,0.024503,0.011797,0.009312,0.001563,0.180416,0.462527,-1.244235,0.095818,0.009045,-0.020358,1.000000,0.000059,0.000047,0.000008,-0.999791,0.006940,-0.007712,0.017593,-0.810756,0.869536,-2.022351,0.999262,-0.035285,-0.015176,0.035071,0.999285,-0.014148,0.015664,0.013606,0.999785
04189,2,0,-54.0000,9.582129,0.903737,-2.034449,-0.011882,-0.049755,0.024502,0.013937,0.012607,0.004364,0.183297,0.461277,-1.237362,0.095820,0.009041,-0.020350,1.000000,0.000070,0.000063,0.000022,-0.999793,0.006913,-0.007651,0.017530,-0.807465,0.862669,-2.015084,0.999268,-0.035159,-0.015056,0.034947,0.999290,-0.014091,0.015541,0.013554,0.999787
04190,2,0,-53.0000,9.582402,0.903241,-2.033383,-0.011823,-0.050053,0.024500,0.002384,0.011176,0.002510,0.182478,0.461277,-1.241182,0.095823,0.009034,-0.020339,1.000000,0.000012,0.000056,0.000013,-0.999794,0.006902,-0.007597,0.017527,-0.806143,0.856580,-2.014646,0.999270,-0.035151,-0.014950,0.034941,0.999290,-0.014068,0.015433,0.013535,0.999789
04191,2,0,-53.0000,9.565234,0.923863,-2.011023,-0.003664,-0.077568,0.004920,-0.003469,0.011993,0.003594,0.182188,0.459448,-1.232131,0.095651,0.009240,-0.020116,1.000000,-0.000017,0.000060,0.000018,-0.999794,0.006897,-0.007541,0.017553,-0.805503,0.850072,-2.017581,0.999270,-0.035202,-0.014836,0.034994,0.999289,-0.014057,0.015320,0.013527,0.999791
04192,2,0,-52.0000,9.525980,0.902265,-2.049696,-0.041008,-0.044004,-0.027187,0.004793,0.007346,0.004314,0.183830,0.451073,-1.240223,0.095259,0.009025,-0.020500,1.000000,0.000024,0.000037,0.000022,-0.999794,0.006870,-0.007502,0.017541,-0.802221,0.845733,-2.016173,0.999272,-0.035178,-0.014760,0.034972,0.999290,-0.013999,0.015242,0.013473,0.999793
04193,2,0,-51.0000,9.533156,0.905382,-2.102818,-0.089729,-0.028082,-0.008924,0.006182,0.012675,0.004470,0.178300,0.458258,-1.231047,0.095330,0.009057,-0.021034,1.000000,0.000031,0.000063,0.000022,-0.999796,0.006850,-0.007441,0.017511,-0.799884,0.838796,-2.012696,0.999276,-0.035117,-0.014639,0.034913,0.999293,-0.013959,0.015119,0.013437,0.999795
04194,2,0,-51.0000,9.539559,0.919971,-2.055580,-0.051956,-0.059306,-0.011222,0.011998,0.016197,0.008321,0.174942,0.461984,-1.238067,0.095394,0.009205,-0.020563,1.000000,0.000060,0.000081,0.000042,-0.999797,0.006811,-0.007354,0.017465,-0.795178,0.828969,-2.007283,0.999282,-0.035023,-0.014468,0.034822,0.999297,-0.013877,0.014944,0.013363,0.999799
04195,2,0,-52.0000,9.564852,0.865886,-2.065611,-0.037988,-0.005714,0.010827,0.016465,0.015385,0.004971,0.178687,0.458303,-1.242866,0.095647,0.008663,-0.020663,1.000000,0.000082,0.000077,0.000025,-0.999799,0.006784,-0.007279,0.017407,-0.791880,0.820407,-2.000617,0.999288,-0.034907,-0.014318,0.034709,0.999302,-0.013819,0.014791,0.013312,0.999802
04196,2,0,-52.0000,9.572294,0.971610,-2.023208,-0.036340,-0.120261,0.018408,0.011241,0.012897,0.007788,0.175071,0.459056,-1.235098,0.095721,0.009721,-0.020238,1.000000,0.000056,0.000064,0.000039,-0.999800,0.006743,-0.007208,0.017366,-0.786952,0.812459,-1.995725,0.999293,-0.034821,-0.014180,0.034627,0.999306,-0.013733,0.014648,0.013232,0.999805
04197,2,0,-53.0000,9.567106,0.919383,-2.004160,-0.003202,-0.079210,0.004907,0.002974,0.012211,0.009178,0.169958,0.459187,-1.235749,0.095669,0.009199,-0.020047,1.000000,0.000015,0.000061,0.000046,-0.999801,0.006705,-0.007140,0.017374,-0.782520,0.804725,-1.996652,0.999294,-0.034838,-0.014045,0.034646,0.999306,-0.013656,0.014511,0.013160,0.999808
04198,2,0,-52.0000,9.558897,0.859420,-2.008076,0.011054,-0.022744,-0.007442,0.008944,0.012667,0.009009,0.180442,0.464018,-1.234253,0.095587,0.008599,-0.020086,1.000000,0.000045,0.000063,0.000045,-0.999802,0.006660,-0.007069,0.017345,-0.777201,0.796652,-1.993194,0.999298,-0.034777,-0.013904,0.034589,0.999310,-0.013563,0.014366,0.013073,0.999811
04199,2,0,-52.0000,9.535738,0.863967,-2.031793,-0.018526,-0.019311,-0.024725,0.016970,0.010806,0.005800,0.181936,0.458038,-1.242064,0.095356,0.008644,-0.020322,1.000000,0.000085,0.000054,0.000029,-0.999804,0.006622,-0.007013,0.017292,-0.772617,0.790389,-1.987079,0.999304,-0.034671,-0.013794,0.034485,0.999314,-0.013483,0.014252,0.012998,0.999814
04200,2,0,-53.0000,9.551511,0.925498,-2.080090,-0.081498,-0.060184,0.005888,0.017083,0.006745,0.008825,0.187787,0.453194,-1.238825,0.095514,0.009261,-0.020803,1.000000,0.000085,0.000034,0.000044,-0.999806,0.006559,-0.006970,0.017225,-0.765274,0.785615,-1.979319,0.999309,-0.034536,-0.013711,0.034353,0.999321,-0.013355,0.014163,0.012875,0.999817
04201,2,0,-53.0000,9.578159,0.926354,-2.032127,-0.032854,-0.079576,0.022016,0.010709,0.001476,0.013308,0.183181,0.464427,-1.244329,0.095781,0.009271,-0.020321,1.000000,0.000054,0.000007,0.000067,-0.999807,0.006475,-0.006947,0.017180,-0.755659,0.783162,-1.974021,0.999313,-0.034443,-0.013668,0.034263,0.999326,-0.013187,0.014113,0.012710,0.999820
04202,2,0,-53.0000,9.579729,0.877348,-2.068156,-0.048569,-0.022388,0.026792,0.011620,0.001711,0.009820,0.183348,0.461277,-1.237124,0.095797,0.008779,-0.020682,1.000000,0.000058,0.000009,0.000049,-0.999809,0.006406,-0.006925,0.017143,-0.747571,0.780881,-1.969666,0.999316,-0.034367,-0.013629,0.034190,0.999330,-0.013046,0.014068,0.012571,0.999822
04203,2,0,-52.0000,9.562389,0.897097,-2.047018,-0.040412,-0.049886,0.007202,0.004498,-0.001525,0.011655,0.184742,0.459351,-1.228683,0.095624,0.008977,-0.020469,1.000000,0.000022,-0.000008,0.000058,-0.999809,0.006333,-0.006919,0.017143,-0.739264,0.780260,-1.969708,0.999316,-0.034368,-0.013618,0.034193,0.999332,-0.012901,0.014052,0.012427,0.999824
04204,2,0,-53.0000,9.562437,0.895948,-2.047297,-0.040353,-0.050183,0.007201,0.008451,-0.003094,0.009596,0.180635,0.456431,-1.241785,0.095624,0.008965,-0.020471,1.000000,0.000042,-0.000015,0.000048,-0.999810,0.006260,-0.006920,0.017123,-0.730823,0.780597,-1.967327,0.999318,-0.034326,-0.013624,0.034153,0.999335,-0.012754,0.014052,0.012280,0.999826
04205,2,0,-53.0000,9.572871,0.870533,-2.014924,0.000551,-0.039342,0.008517,0.002757,-0.005342,0.006655,0.177369,0.453466,-1.237339,0.095729,0.008709,-0.020147,1.000000,0.000014,-0.000027,0.000033,-0.999810,0.006205,-0.006940,0.017125,-0.724611,0.782981,-1.967475,0.999317,-0.034329,-0.013665,0.034157,0.999336,-0.012645,0.014090,0.012170,0.999827
04206,2,0,-54.0000,9.582850,0.880765,-2.046509,-0.029364,-0.038920,0.025635,0.013389,-0.004148,0.012006,0.180769,0.461605,-1.241065,0.095828,0.008815,-0.020463,1.000000,0.000067,-0.000021,0.000060,-0.999811,0.006113,-0.006943,0.017083,-0.714075,0.783467,-1.962643,0.999320,-0.034245,-0.013674,0.034075,0.999342,-0.012461,0.014091,0.011987,0.999829
04207,2,0,-54.0000,9.588943,0.894755,-2.000906,0.008440,-0.070105,0.023321,0.001806,-0.001232,0.015074,0.182747,0.464444,-1.238992,0.095889,0.008955,-0.020008,1.000000,0.000009,-0.000006,0.000075,-0.999812,0.006028,-0.006928,0.017103,-0.704248,0.781941,-1.964900,0.999319,-0.034284,-0.013647,0.034117,0.999342,-0.012290,0.014059,0.011816,0.999831
04208,2,0,-54.0000,9.565533,0.898805,-2.026086,-0.021166,-0.066732,0.006040,0.006266,-0.007382,0.013843,0.186403,0.455280,-1.245020,0.095655,0.008995,-0.020257,1.000000,0.000031,-0.000037,0.000069,-0.999812,0.005930,-0.006942,0.017100,-0.693063,0.783780,-1.964413,0.999319,-0.034276,-0.013679,0.034111,0.999345,-0.012095,0.014085,0.011620,0.999833
04209,2,0,-54.0000,9.538085,0.907049,-1.974648,0.016966,-0.094958,-0.030676,0.003851,-0.008884,0.014152,0.184439,0.459414,-1.236359,0.095381,0.009078,-0.019742,1.000000,0.000019,-0.000044,0.000071,-0.999812,0.005834,-0.006966,0.017103,-0.682128,0.786693,-1.964710,0.999318,-0.034281,-0.013730,0.034118,0.999347,-0.011904,0.014129,0.011427,0.999835
04210,2,0,-54.0000,9.571460,0.911232,-1.982064,0.016716,-0.098207,0.003720,0.003960,-0.012943,0.017179,0.173779,0.459908,-1.240065,0.095715,0.009121,-0.019814,1.000000,0.000020,-0.000065,0.000086,-0.999813,0.005714,-0.007001,0.017116,-0.668461,0.790895,-1.966139,0.999316,-0.034306,-0.013803,0.034146,0.999349,-0.011665,0.014194,0.011186,0.999837
04211,2,0,-56.0000,9.544874,0.907146,-2.031097,-0.031705,-0.079291,-0.012402,0.008896,-0.013997,0.019589,0.182692,0.455944,-1.242476,0.095449,0.009082,-0.020304,1.000000,0.000044,-0.000070,0.000098,-0.999813,0.005579,-0.007038,0.017117,-0.653109,0.795456,-1.966156,0.999315,-0.034306,-0.013883,0.034149,0.999352,-0.011398,0.014265,0.010916,0.999839
04212,2,0,-56.0000,9.562182,0.883963,-2.053691,-0.039681,-0.052321,0.007193,0.014467,-0.013023,0.021621,0.181718,0.458890,-1.242018,0.095622,0.008851,-0.020530,1.000000,0.000072,-0.000065,0.000108,-0.999814,0.005428,-0.007066,0.017083,-0.635739,0.798932,-1.962195,0.999316,-0.034237,-0.013944,0.034083,0.999357,-0.011094,0.014314,0.010612,0.999841
04213,2,0,-56.0000,9.520373,0.919961,-1.958703,0.025320,-0.123290,-0.050285,0.015725,-0.014301,0.022981,0.184742,0.457231,-1.243665,0.095204,0.009212,-0.019579,1.000000,0.000079,-0.000072,0.000115,-0.999816,0.005269,-0.007099,0.017044,-0.617601,0.803125,-1.957546,0.999318,-0.034156,-0.014017,0.034006,0.999364,-0.010778,0.014376,0.010294,0.999844
04214,2,0,-56.0000,9.555018,0.875486,-2.002819,0.009312,-0.069054,-0.011092,0.010256,-0.019329,0.023982,0.177524,0.456013,-1.237123,0.095551,0.008767,-0.020019,1.000000,0.000051,-0.000097,0.000120,-0.999816,0.005100,-0.007153,0.017035,-0.598373,0.809540,-1.956489,0.999317,-0.034137,-0.014129,0.033991,0.999368,-0.010442,0.014476,0.009955,0.999846
04215,2,0,-57.0000,9.601327,0.897596,-2.019254,-0.002017,-0.086998,0.039266,0.013927,-0.019105,0.025032,0.181557,0.457292,-1.232744,0.096014,0.008989,-0.020183,1.000000,0.000070,-0.000096,0.000125,-0.999817,0.004926,-0.007205,0.017012,-0.578524,0.815902,-1.953733,0.999317,-0.034089,-0.014240,0.033947,0.999373,-0.010096,0.014575,0.009606,0.999848
04216,2,0,-58.0000,9.583351,0.812523,-2.094836,-0.044287,0.015888,0.030428,0.017961,-0.015058,0.028813,0.183308,0.455332,-1.237365,0.095834,0.008141,-0.020940,1.000000,0.000090,-0.000075,0.000144,-0.999819,0.004734,-0.007230,0.016969,-0.556537,0.819138,-1.948703,0.999320,-0.034001,-0.014296,0.033864,0.999379,-0.009712,0.014618,0.009222,0.999851
04217,2,0,-58.0000,9.572809,0.834019,-2.129325,-0.084966,0.004593,0.029113,0.032978,-0.014979,0.022852,0.178049,0.453688,-1.238234,0.095729,0.008355,-0.021285,1.000000,0.000165,-0.000075,0.000114,-0.999821,0.004557,-0.007267,0.016850,-0.536214,0.823807,-1.934913,0.999327,-0.033761,-0.014378,0.033628,0.999391,-0.009358,0.014685,0.008868,0.999853
04218,2,0,-59.0000,9.581461,0.890062,-2.125941,-0.099124,-0.052471,0.041431,0.021400,-0.012048,0.025926,0.184212,0.453141,-1.245549,0.095815,0.008915,-0.021253,1.000000,0.000107,-0.000060,0.000130,-0.999823,0.004380,-0.007283,0.016787,-0.515858,0.825973,-1.927499,0.999330,-0.033631,-0.014415,0.033504,0.999398,-0.009002,0.014710,0.008513,0.999856
04219,2,0,-60.0000,9.575776,0.836062,-2.109065,-0.065953,-0.011423,0.027951,0.014808,-0.009190,0.024359,0.179027,0.450193,-1.242689,0.095758,0.008374,-0.021086,1.000000,0.000074,-0.000046,0.000122,-0.999824,0.004224,-0.007289,0.016754,-0.498013,0.827087,-1.923593,0.999332,-0.033563,-0.014435,0.033440,0.999403,-0.008691,0.014718,0.008202,0.999858
04220,2,0,-60.0000,9.586248,0.809036,-2.077020,-0.025099,-0.000655,0.029267,0.012409,-0.005358,0.022549,0.178123,0.462935,-1.245741,0.095862,0.008102,-0.020767,1.000000,0.000062,-0.000027,0.000113,-0.999825,0.004083,-0.007279,0.016728,-0.481813,0.826220,-1.920543,0.999334,-0.033510,-0.014420,0.033391,0.999407,-0.008408,0.014693,0.007921,0.999861
04221,2,0,-59.0000,9.619795,0.812250,-2.083939,-0.025314,-0.003848,0.063666,0.010752,-0.003556,0.023389,0.183992,0.456690,-1.247499,0.096197,0.008135,-0.020837,1.000000,0.000054,-0.000018,0.000117,-0.999826,0.003946,-0.007261,0.016724,-0.466106,0.824372,-1.919929,0.999335,-0.033499,-0.014388,0.033385,0.999409,-0.008134,0.014652,0.007648,0.999863
04222,2,0,-58.0000,9.611123,0.751121,-2.089097,-0.011027,0.052618,0.051354,0.017406,-0.000103,0.015785,0.188627,0.456487,-1.246496,0.096111,0.007521,-0.020890,1.000000,0.000087,-0.000001,0.000079,-0.999828,0.003840,-0.007238,0.016665,-0.453795,0.821955,-1.913092,0.999340,-0.033380,-0.014345,0.033269,0.999415,-0.007919,0.014601,0.007437,0.999866
04223,2,0,-58.0000,9.596566,0.813712,-2.109085,-0.054796,-0.000691,0.046392,0.025664,0.000566,0.014393,0.179259,0.455916,-1.237495,0.095965,0.008147,-0.021090,1.000000,0.000128,0.000003,0.000072,-0.999830,0.003735,-0.007217,0.016560,-0.441685,0.819808,-1.900910,0.999347,-0.033168,-0.014308,0.033060,0.999424,-0.007708,0.014555,0.007230,0.999868
04224,2,0,-59.0000,9.569034,0.857380,-2.120618,-0.087501,-0.039315,0.025470,0.015252,0.006280,0.015792,0.183653,0.457009,-1.244680,0.095689,0.008583,-0.021209,1.000000,0.000076,0.000031,0.000079,-0.999831,0.003641,-0.007164,0.016509,-0.430812,0.813923,-1.895005,0.999352,-0.033065,-0.014205,0.032960,0.999428,-0.007518,0.014446,0.007045,0.999871
04225,2,0,-60.0000,9.555058,0.884456,-2.076066,-0.060529,-0.082273,0.004696,0.013353,0.005532,0.014814,0.178472,0.449492,-1.247813,0.095549,0.008853,-0.020763,1.000000,0.000067,0.000028,0.000074,-0.999833,0.003557,-0.007118,0.016476,-0.421017,0.808851,-1.891172,0.999356,-0.032998,-0.014117,0.032897,0.999432,-0.007347,0.014351,0.006878,0.999873
04226,2,0,-61.0000,9.542637,0.828239,-2.003526,0.021423,-0.057485,-0.027073,0.000902,0.003895,0.016449,0.185246,0.457533,-1.244273,0.095425,0.008290,-0.020037,1.000000,0.000005,0.000019,0.000082,-0.999833,0.003472,-0.007075,0.016497,-0.411201,0.804072,-1.893485,0.999356,-0.033038,-0.014033,0.032940,0.999432,-0.007176,0.014262,0.006709,0.999876
04227,2,0,-62.0000,9.555923,0.845676,-2.011295,0.010401,-0.072477,-0.011118,0.003712,0.004869,0.013937,0.186158,0.451881,-1.246716,0.095558,0.008464,-0.020115,1.000000,0.000019,0.000024,0.000070,-0.999833,0.003400,-0.007034,0.016504,-0.402877,0.799496,-1.894146,0.999356,-0.033050,-0.013953,0.032954,0.999432,-0.007031,0.014178,0.006566,0.999878
04228,2,0,-60.0000,9.577281,0.818693,-2.109048,-0.065221,-0.013831,0.027953,0.009159,0.004561,0.015057,0.185125,0.445190,-1.240501,0.095772,0.008195,-0.021092,1.000000,0.000046,0.000023,0.000075,-0.999834,0.003313,-0.006990,0.016483,-0.392860,0.794651,-1.891650,0.999359,-0.033006,-0.013869,0.032914,0.999435,-0.006856,0.014087,0.006395,0.999880
04229,2,0,-60.0000,9.590622,0.835954,-2.116670,-0.076222,-0.028841,0.043910,0.016404,0.009055,0.014122,0.184265,0.456548,-1.241066,0.095905,0.008368,-0.021170,1.000000,0.000082,0.000045,0.000071,-0.999836,0.003233,-0.006930,0.016410,-0.383488,0.787935,-1.883182,0.999365,-0.032859,-0.013752,0.032769,0.999441,-0.006692,0.013964,0.006238,0.999883
04230,2,0,-59.0000,9.550152,0.860737,-2.119633,-0.097806,-0.052703,0.007026,0.018915,0.006500,0.016846,0.178625,0.446945,-1.246598,0.095500,0.008617,-0.021199,1.000000,0.000095,0.000033,0.000084,-0.999838,0.003131,-0.006874,0.016342,-0.371634,0.781740,-1.875340,0.999371,-0.032722,-0.013644,0.032636,0.999446,-0.006486,0.013848,0.006036,0.999886
04231,2,0,-58.0000,9.573963,0.853359,-2.094066,-0.068033,-0.056638,0.024297,0.001286,0.013056,0.017050,0.180146,0.455127,-1.240682,0.095738,0.008542,-0.020947,1.000000,0.000006,0.000065,0.000085,-0.999838,0.003061,-0.006789,0.016360,-0.363471,0.772147,-1.877312,0.999373,-0.032756,-0.013476,0.032673,0.999446,-0.006343,0.013676,0.005899,0.999889
04232,2,0,-59.0000,9.577474,0.859285,-2.069898,-0.049128,-0.072415,0.023125,-0.001924,0.012611,0.021762,0.174216,0.451088,-1.245652,0.095772,0.008603,-0.020705,1.000000,-0.000010,0.000063,0.000109,-0.999839,0.002969,-0.006696,0.016397,-0.352800,0.761646,-1.881439,0.999373,-0.032829,-0.013293,0.032749,0.999445,-0.006157,0.013488,0.005718,0.999893
04233,2,0,-59.0000,9.575962,0.801987,-2.127449,-0.083615,0.000328,0.029126,-0.005938,0.013894,0.015859,0.172530,0.447351,-1.233804,0.095758,0.008027,-0.021281,1.000000,-0.000030,0.000069,0.000079,-0.999838,0.002914,-0.006609,0.016461,-0.346389,0.751705,-1.888712,0.999371,-0.032955,-0.013119,0.032878,0.999441,-0.006045,0.013311,0.005610,0.999896
04234,2,0,-59.0000,9.576402,0.800640,-2.125975,-0.083552,0.000031,0.029126,-0.003005,0.016141,0.014257,0.178282,0.445729,-1.240032,0.095762,0.008013,-0.021268,1.000000,-0.000015,0.000081,0.000071,-0.999839,0.002864,-0.006512,0.016494,-0.340461,0.740700,-1.892453,0.999371,-0.033021,-0.012927,0.032946,0.999439,-0.005942,0.013116,0.005512,0.999899
04235,2,0,-60.0000,9.556810,0.777107,-2.062105,-0.023520,-0.001674,-0.005128,-0.000071,0.018387,0.012656,0.179284,0.440929,-1.240996,0.095566,0.007777,-0.020630,1.000000,-0.000000,0.000092,0.000063,-0.999839,0.002824,-0.006409,0.016519,-0.335693,0.728954,-1.895243,0.999372,-0.033070,-0.012722,0.032997,0.999438,-0.005858,0.012909,0.005435,0.999902
04236,2,0,-60.0000,9.598013,0.749340,-2.056746,-0.001806,0.021583,0.031758,-0.001450,0.018391,0.010385,0.175531,0.446598,-1.244436,0.095978,0.007498,-0.020576,1.000000,-0.000007,0.000092,0.000052,-0.999839,0.002793,-0.006308,0.016540,-0.332021,0.717465,-1.897584,0.999373,-0.033110,-0.012522,0.033040,0.999437,-0.005794,0.012707,0.005377,0.999905
04237,2,0,-59.0000,9.588430,0.737406,-2.023770,0.028266,0.020583,0.014631,0.000107,0.020640,0.006513,0.177372,0.449723,-1.253320,0.095882,0.007377,-0.020248,1.000000,0.000001,0.000103,0.000033,-0.999840,0.002784,-0.006205,0.016544,-0.330768,0.705714,-1.898011,0.999376,-0.033118,-0.012317,0.033049,0.999437,-0.005773,0.012501,0.005362,0.999907
04238,2,0,-60.0000,9.591667,0.780331,-2.062936,-0.023596,-0.005519,0.029269,0.010937,0.019718,0.000798,0.181192,0.452962,-1.237161,0.095915,0.007805,-0.020638,1.000000,0.000055,0.000099,0.000004,-0.999841,0.002786,-0.006115,0.016495,-0.330827,0.695348,-1.892278,0.999381,-0.033018,-0.012136,0.032950,0.999440,-0.005774,0.012320,0.005370,0.999910
04239,2,0,-61.0000,9.601052,0.838981,-2.056058,-0.037734,-0.062525,0.041557,-0.004182,0.023727,0.003716,0.181310,0.451099,-1.240931,0.096008,0.008391,-0.020572,1.000000,-0.000021,0.000119,0.000019,-0.999842,0.002801,-0.006003,0.016523,-0.332350,0.682466,-1.895487,0.999382,-0.033074,-0.011911,0.033007,0.999438,-0.005800,0.012096,0.005403,0.999912
04240,2,0,-60.0000,9.575315,0.800807,-2.037574,-0.015414,-0.033315,0.009650,0.002916,0.021612,0.004004,0.174187,0.451655,-1.234409,0.095751,0.008010,-0.020386,1.000000,0.000015,0.000108,0.000020,-0.999842,0.002801,-0.005898,0.016515,-0.332080,0.670447,-1.894527,0.999385,-0.033057,-0.011701,0.032991,0.999439,-0.005795,0.011886,0.005406,0.999915
04241,2,0,-61.0000,9.623560,0.777188,-2.085786,-0.042462,0.006216,0.064843,0.000404,0.024169,0.001279,0.181122,0.451170,-1.244387,0.096233,0.007773,-0.020869,1.000000,0.000002,0.000121,0.000006,-0.999843,0.002823,-0.005788,0.016523,-0.334454,0.657788,-1.895473,0.999387,-0.033074,-0.011480,0.033009,0.999438,-0.005837,0.011667,0.005454,0.999917
04242,2,0,-61.0000,9.586387,0.811355,-2.064243,-0.045217,-0.033113,0.026777,0.005327,0.023109,0.003697,0.185801,0.449582,-1.240896,0.095861,0.008116,-0.020653,1.000000,0.000027,0.000116,0.000018,-0.999844,0.002824,-0.005676,0.016503,-0.334316,0.645023,-1.893064,0.999391,-0.033032,-0.011258,0.032968,0.999439,-0.005835,0.011444,0.005460,0.999920
04243,2,0,-62.0000,9.617545,0.773155,-2.027192,0.006540,-0.010537,0.046536,-0.001774,0.025226,0.003408,0.178385,0.449102,-1.250042,0.096173,0.007733,-0.020284,1.000000,-0.000009,0.000126,0.000017,-0.999844,0.002840,-0.005559,0.016505,-0.335972,0.631532,-1.893312,0.999393,-0.033037,-0.011022,0.032973,0.999439,-0.005863,0.011210,0.005496,0.999922
04244,2,0,-62.0000,9.632411,0.743924,-2.068709,-0.020246,0.031902,0.067337,0.004829,0.027691,0.002865,0.176688,0.444345,-1.245183,0.096321,0.007441,-0.020700,1.000000,0.000024,0.000138,0.000014,-0.999845,0.002853,-0.005427,0.016484,-0.337174,0.616443,-1.890894,0.999398,-0.032994,-0.010759,0.032932,0.999440,-0.005884,0.010947,0.005527,0.999925
04245,2,0,-62.0000,9.640745,0.850421,-2.025272,-0.018670,-0.082627,0.074766,-0.002393,0.028532,0.001665,0.178946,0.444008,-1.246417,0.096404,0.008505,-0.020267,1.000000,-0.000012,0.000143,0.000008,-0.999846,0.002882,-0.005296,0.016491,-0.340273,0.601356,-1.891657,0.999400,-0.033008,-0.010495,0.032947,0.999439,-0.005939,0.010686,0.005589,0.999927
04246,2,0,-61.0000,9.598893,0.785577,-2.021280,-0.004057,-0.023176,0.028090,-0.005118,0.023509,0.007208,0.170519,0.443109,-1.241113,0.095986,0.007859,-0.020224,1.000000,-0.000026,0.000118,0.000036,-0.999846,0.002879,-0.005177,0.016525,-0.339671,0.587681,-1.895476,0.999400,-0.033075,-0.010257,0.033015,0.999437,-0.005928,0.010447,0.005586,0.999930
04247,2,0,-62.0000,9.632949,0.790490,-2.025136,-0.004256,-0.026439,0.062485,-0.002586,0.026283,0.007811,0.179736,0.447948,-1.241842,0.096327,0.007908,-0.020264,1.000000,-0.000013,0.000131,0.000039,-0.999846,0.002876,-0.005045,0.016541,-0.339079,0.572618,-1.897292,0.999402,-0.033106,-0.009994,0.033048,0.999436,-0.005918,0.010184,0.005584,0.999933
04248,2,0,-62.0000,9.575477,0.837503,-2.005275,-0.017847,-0.077532,0.005967,-0.003631,0.024785,0.010392,0.172877,0.448630,-1.246613,0.095752,0.008380,-0.020065,1.000000,-0.000018,0.000124,0.000052,-0.999847,0.002858,-0.004915,0.016570,-0.336839,0.557660,-1.900582,0.999403,-0.033164,-0.009733,0.033108,0.999435,-0.005879,0.009922,0.005553,0.999935
04249,2,0,-63.0000,9.586238,0.847640,-2.033816,-0.047708,-0.077056,0.023096,-0.011657,0.026681,0.013589,0.176622,0.448108,-1.254158,0.095859,0.008482,-0.020351,1.000000,-0.000058,0.000133,0.000068,-0.999846,0.002840,-0.004772,0.016639,-0.334541,0.541306,-1.908406,0.999401,-0.033300,-0.009447,0.033246,0.999430,-0.005839,0.009636,0.005521,0.999938
04250,2,0,-63.0000,9.559327,0.856565,-1.979290,-0.009673,-0.105337,-0.013665,-0.011284,0.020825,0.013514,0.179267,0.451409,-1.249732,0.095591,0.008571,-0.019803,1.000000,-0.000056,0.000104,0.000068,-0.999846,0.002810,-0.004654,0.016710,-0.330886,0.527880,-1.916504,0.999398,-0.033442,-0.009213,0.033389,0.999426,-0.005775,0.009401,0.005464,0.999941
04251,2,0,-62.0000,9.584423,0.801974,-1.988285,0.004397,-0.051815,0.008458,-0.013987,0.021132,0.016931,0.177638,0.452828,-1.244888,0.095841,0.008026,-0.019894,1.000000,-0.000070,0.000106,0.000085,-0.999845,0.002770,-0.004532,0.016790,-0.326080,0.513937,-1.925531,0.999395,-0.033599,-0.008970,0.033549,0.999421,-0.005691,0.009156,0.005387,0.999944
04252,2,0,-62.0000,9.528094,0.800686,-2.004956,-0.024912,-0.045404,-0.043203,-0.011198,0.016772,0.016549,0.179309,0.447877,-1.241251,0.095279,0.008014,-0.020058,1.000000,-0.000056,0.000084,0.000083,-0.999844,0.002719,-0.004428,0.016865,-0.320066,0.502136,-1.934097,0.999392,-0.033749,-0.008764,0.033700,0.999416,-0.005586,0.008947,0.005287,0.999946
04253,2,0,-63.0000,9.547693,0.833744,-1.965488,0.001754,-0.091371,-0.029622,-0.017689,0.015588,0.017997,0.174323,0.453484,-1.244177,0.095475,0.008344,-0.019663,1.000000,-0.000088,0.000078,0.000090,-0.999843,0.002669,-0.004331,0.016967,-0.314249,0.491026,-1.945744,0.999387,-0.033952,-0.008570,0.033906,0.999410,-0.005484,0.008751,0.005191,0.999948
04254,2,0,-64.0000,9.603150,0.776922,-2.004333,-0.003363,-0.025402,0.028085,-0.015749,0.011980,0.014050,0.172217,0.445568,-1.238481,0.096030,0.007774,-0.020050,1.000000,-0.000079,0.000060,0.000070,-0.999842,0.002626,-0.004254,0.017064,-0.309245,0.482276,-1.956783,0.999381,-0.034144,-0.008417,0.034100,0.999404,-0.005397,0.008596,0.005107,0.999950
04255,2,0,-63.0000,9.552612,0.791256,-1.975953,0.005042,-0.049899,-0.025943,-0.011992,0.008140,0.018142,0.178381,0.450512,-1.241302,0.095525,0.007920,-0.019764,1.000000,-0.000060,0.000041,0.000091,-0.999841,0.002557,-0.004190,0.017152,-0.301266,0.475078,-1.966846,0.999376,-0.034320,-0.008292,0.034277,0.999399,-0.005258,0.008467,0.004970,0.999952
04256,2,0,-63.0000,9.597784,0.758695,-2.048427,-0.040869,0.005032,0.030455,-0.006263,0.006022,0.016165,0.170002,0.452311,-1.237756,0.095977,0.007594,-0.020487,1.000000,-0.000031,0.000030,0.000081,-0.999840,0.002485,-0.004138,0.017207,-0.292869,0.469186,-1.973061,0.999374,-0.034428,-0.008189,0.034387,0.999396,-0.005111,0.008360,0.004827,0.999953
04257,2,0,-65.0000,9.547099,0.772826,-2.020846,-0.032461,-0.019447,-0.023574,0.005927,-0.000246,0.014864,0.173131,0.453874,-1.247916,0.095470,0.007736,-0.020208,1.000000,0.000030,-0.000001,0.000074,-0.999841,0.002398,-0.004119,0.017208,-0.282931,0.467227,-1.973145,0.999374,-0.034430,-0.008155,0.034390,0.999396,-0.004938,0.008320,0.004654,0.999955
04258,2,0,-66.0000,9.567529,0.758169,-2.018999,-0.021565,-0.007984,-0.005126,0.001410,0.000294,0.010240,0.173629,0.449632,-1.243528,0.095675,0.007587,-0.020190,1.000000,0.000007,0.000001,0.000051,-0.999841,0.002335,-0.004104,0.017221,-0.275662,0.465571,-1.974636,0.999373,-0.034456,-0.008126,0.034418,0.999396,-0.004811,0.008287,0.004528,0.999955
04259,2,0,-65.0000,9.590930,0.751413,-1.994186,0.008208,-0.011943,0.012135,0.006854,-0.000023,0.011374,0.167710,0.448300,-1.246753,0.095909,0.007520,-0.019942,1.000000,0.000034,-0.000000,0.000057,-0.999841,0.002264,-0.004090,0.017215,-0.267455,0.464120,-1.973845,0.999374,-0.034442,-0.008100,0.034405,0.999397,-0.004668,0.008256,0.004386,0.999956
04260,2,0,-66.0000,9.597077,0.801326,-2.012200,-0.024829,-0.053522,0.025579,0.005196,0.001785,0.012211,0.177832,0.451808,-1.250922,0.095970,0.008020,-0.020123,1.000000,0.000026,0.000009,0.000061,-0.999841,0.002190,-0.004064,0.017211,-0.258944,0.461297,-1.973375,0.999375,-0.034434,-0.008051,0.034398,0.999398,-0.004519,0.008202,0.004239,0.999957
04261,2,0,-67.0000,9.583999,0.781131,-2.004107,-0.013597,-0.039006,0.009632,0.006329,-0.000772,0.012664,0.173454,0.445693,-1.245239,0.095840,0.007818,-0.020040,1.000000,0.000032,-0.000004,0.000063,-0.999842,0.002111,-0.004051,0.017206,-0.249916,0.459991,-1.972824,0.999375,-0.034424,-0.008028,0.034390,0.999399,-0.004362,0.008174,0.004083,0.999958
04262,2,0,-66.0000,9.597262,0.798998,-2.012245,-0.024668,-0.054066,0.025576,0.002336,0.000518,0.006751,0.170418,0.448203,-1.242590,0.095972,0.007993,-0.020123,1.000000,0.000012,0.000003,0.000034,-0.999842,0.002064,-0.004041,0.017212,-0.244416,0.458873,-1.973394,0.999375,-0.034434,-0.008009,0.034401,0.999399,-0.004266,0.008151,0.003988,0.999959
04263,2,0,-65.0000,9.560833,0.784906,-2.028962,-0.043106,-0.035823,-0.007630,0.001408,0.000296,0.010241,0.175100,0.454256,-1.240598,0.095608,0.007854,-0.020290,1.000000,0.000007,0.000001,0.000051,-0.999841,0.002003,-0.004027,0.017228,-0.237445,0.457429,-1.975211,0.999374,-0.034466,-0.007984,0.034434,0.999398,-0.004144,0.008122,0.003867,0.999960
04264,2,0,-64.0000,9.594409,0.753668,-1.970937,0.027428,-0.028829,0.010942,0.000511,0.005405,0.011610,0.174670,0.442525,-1.240506,0.095943,0.007542,-0.019712,1.000000,0.000003,0.000027,0.000058,-0.999841,0.001943,-0.003985,0.017245,-0.230498,0.452748,-1.977150,0.999373,-0.034500,-0.007902,0.034469,0.999398,-0.004023,0.008036,0.003748,0.999961
04265,2,0,-64.0000,9.564079,0.790674,-2.005562,-0.024098,-0.051847,-0.008822,0.001693,-0.001507,0.007130,0.176281,0.447353,-1.248342,0.095641,0.007910,-0.020055,1.000000,0.000008,-0.000008,0.000036,-0.999841,0.001894,-0.003986,0.017254,-0.224893,0.452944,-1.978138,0.999373,-0.034517,-0.007905,0.034487,0.999397,-0.003925,0.008036,0.003650,0.999961
04266,2,0,-65.0000,9.584436,0.776601,-2.003777,-0.013200,-0.040390,0.009626,-0.001857,-0.000444,0.006981,0.177205,0.439163,-1.246543,0.095844,0.007769,-0.020038,1.000000,-0.000009,-0.000002,0.000035,-0.999841,0.001848,-0.003980,0.017280,-0.219618,0.452294,-1.981124,0.999371,-0.034569,-0.007894,0.034540,0.999396,-0.003833,0.008022,0.003558,0.999961
04267,2,0,-68.0000,9.568308,0.749131,-2.018680,-0.020777,-0.010408,-0.005127,0.003181,-0.000236,0.010316,0.175548,0.451515,-1.254927,0.095683,0.007497,-0.020187,1.000000,0.000016,-0.000001,0.000052,-0.999841,0.001783,-0.003969,0.017269,-0.212178,0.451257,-1.979801,0.999372,-0.034546,-0.007876,0.034518,0.999397,-0.003703,0.007999,0.003429,0.999962
04268,2,0,-69.0000,9.591789,0.778173,-2.057834,-0.061813,-0.024738,0.027954,0.006003,0.000731,0.007811,0.176585,0.444345,-1.245661,0.095918,0.007786,-0.020578,1.000000,0.000030,0.000004,0.000039,-0.999842,0.001727,-0.003956,0.017257,-0.205699,0.449832,-1.978429,0.999373,-0.034522,-0.007851,0.034495,0.999398,-0.003590,0.007970,0.003317,0.999963
04269,2,0,-69.0000,9.554195,0.811939,-2.038701,-0.064541,-0.063987,-0.010140,0.001692,-0.001507,0.007130,0.172080,0.453430,-1.244694,0.095542,0.008123,-0.020386,1.000000,0.000008,-0.000008,0.000036,-0.999842,0.001677,-0.003957,0.017259,-0.200012,0.450043,-1.978620,0.999373,-0.034526,-0.007855,0.034499,0.999399,-0.003491,0.007970,0.003218,0.999963
04270,2,0,-70.0000,9.584677,0.773507,-2.003822,-0.012838,-0.041509,0.009622,-0.006135,0.002650,0.004178,0.177683,0.451045,-1.247894,0.095846,0.007736,-0.020040,1.000000,-0.000031,0.000013,0.000021,-0.999841,0.001654,-0.003941,0.017302,-0.197316,0.448236,-1.983559,0.999370,-0.034612,-0.007823,0.034586,0.999396,-0.003444,0.007938,0.003171,0.999963
04271,2,0,-73.0000,9.602079,0.751995,-2.024667,-0.020719,-0.014484,0.029267,-0.004884,0.001370,0.005542,0.167711,0.444528,-1.241759,0.096020,0.007522,-0.020248,1.000000,-0.000024,0.000007,0.000028,-0.999841,0.001625,-0.003931,0.017345,-0.193981,0.447140,-1.988438,0.999367,-0.034697,-0.007804,0.034671,0.999393,-0.003386,0.007917,0.003113,0.999964
04272,2,0,-74.0000,9.619400,0.730489,-2.045888,-0.028648,0.012460,0.048913,0.004158,-0.004370,0.001892,0.169917,0.449650,-1.253469,0.096194,0.007306,-0.020457,1.000000,0.000021,-0.000022,0.000009,-0.999841,0.001589,-0.003951,0.017338,-0.189929,0.449583,-1.987641,0.999368,-0.034683,-0.007847,0.034658,0.999394,-0.003315,0.007957,0.003041,0.999964
04273,2,0,-71.0000,9.602068,0.751200,-2.025015,-0.020572,-0.015034,0.029266,0.004633,0.000735,0.005536,0.172755,0.445151,-1.248834,0.096020,0.007515,-0.020250,1.000000,0.000023,0.000004,0.000028,-0.999841,0.001547,-0.003943,0.017342,-0.185122,0.448706,-1.988042,0.999367,-0.034690,-0.007831,0.034665,0.999394,-0.003231,0.007939,0.002957,0.999964
04274,2,0,-68.0000,9.628435,0.752745,-1.977122,0.027990,-0.034571,0.045325,0.003382,0.002016,0.004172,0.169675,0.448832,-1.240932,0.096284,0.007530,-0.019772,1.000000,0.000017,0.000010,0.000021,-0.999841,0.001513,-0.003930,0.017339,-0.181128,0.447262,-1.987675,0.999368,-0.034683,-0.007806,0.034660,0.999394,-0.003161,0.007911,0.002889,0.999965
04275,2,0,-68.0000,9.584862,0.771461,-2.003726,-0.012424,-0.042821,0.009617,0.007861,0.001173,0.000830,0.180141,0.447025,-1.238433,0.095848,0.007716,-0.020038,1.000000,0.000039,0.000006,0.000004,-0.999841,0.001490,-0.003928,0.017317,-0.178520,0.447103,-1.985145,0.999369,-0.034639,-0.007803,0.034616,0.999396,-0.003116,0.007907,0.002844,0.999965
04276,2,0,-71.0000,9.578796,0.720038,-1.985603,0.020748,-0.001847,-0.003815,0.005562,0.000956,0.002045,0.184441,0.445945,-1.251091,0.095788,0.007202,-0.019856,1.000000,0.000028,0.000005,0.000010,-0.999842,0.001461,-0.003923,0.017301,-0.175186,0.446636,-1.983360,0.999371,-0.034608,-0.007795,0.034585,0.999397,-0.003057,0.007896,0.002786,0.999965
04277,2,0,-68.0000,9.595138,0.782066,-2.034676,-0.042178,-0.042634,0.026754,0.010159,0.001390,-0.000385,0.177796,0.441940,-1.244672,0.095951,0.007822,-0.020347,1.000000,0.000051,0.000007,-0.000002,-0.999843,0.001442,-0.003925,0.017238,-0.172986,0.446880,-1.976109,0.999375,-0.034482,-0.007799,0.034459,0.999402,-0.003019,0.007899,0.002748,0.999965
04278,2,0,-66.0000,9.571890,0.787459,-2.059339,-0.071787,-0.039187,0.009499,0.010396,0.003943,0.001437,0.174546,0.441958,-1.252464,0.095718,0.007876,-0.020595,1.000000,0.000052,0.000020,0.000007,-0.999843,0.001416,-0.003908,0.017197,-0.169917,0.444918,-1.971424,0.999378,-0.034400,-0.007765,0.034378,0.999405,-0.002966,0.007863,0.002697,0.999965
04279,2,0,-65.0000,9.592311,0.773873,-2.057024,-0.060825,-0.027714,0.027952,-0.000370,0.005859,0.000077,0.173023,0.448931,-1.248892,0.095922,0.007739,-0.020573,1.000000,-0.000002,0.000029,0.000000,-0.999844,0.001412,-0.003886,0.017192,-0.169422,0.442481,-1.970832,0.999379,-0.034390,-0.007723,0.034368,0.999405,-0.002957,0.007820,0.002690,0.999966
04280,2,0,-62.0000,9.531321,0.778409,-1.998379,-0.022522,-0.052966,-0.043235,0.001893,0.000744,0.000986,0.170481,0.443331,-1.245350,0.095313,0.007785,-0.019984,1.000000,0.000009,0.000004,0.000005,-0.999844,0.001391,-0.003884,0.017194,-0.167066,0.442322,-1.970990,0.999379,-0.034392,-0.007720,0.034371,0.999405,-0.002916,0.007816,0.002649,0.999966
04281,2,0,-62.0000,9.592305,0.738130,-1.992535,0.010103,-0.017977,0.012124,-0.005205,0.002873,0.000686,0.175118,0.448222,-1.245346,0.095923,0.007381,-0.019927,1.000000,-0.000026,0.000014,0.000003,-0.999843,0.001386,-0.003875,0.017232,-0.166440,0.441254,-1.975416,0.999376,-0.034470,-0.007701,0.034448,0.999402,-0.002905,0.007797,0.002638,0.999966
04282,2,0,-64.0000,9.589370,0.730516,-2.015170,-0.008663,-0.002782,0.013324,0.001691,0.003522,-0.002959,0.175305,0.447290,-1.246634,0.095893,0.007304,-0.020153,1.000000,0.000008,0.000018,-0.000015,-0.999843,0.001388,-0.003867,0.017230,-0.166701,0.440330,-1.975129,0.999376,-0.034465,-0.007685,0.034443,0.999402,-0.002909,0.007781,0.002643,0.999966
04283,2,0,-63.0000,9.596516,0.698537,-2.004887,0.013429,0.023488,0.015838,0.008062,0.003423,-0.005314,0.169707,0.440075,-1.254672,0.095965,0.006984,-0.020050,1.000000,0.000040,0.000017,-0.000027,-0.999844,0.001398,-0.003866,0.017191,-0.167761,0.440201,-1.970675,0.999379,-0.034387,-0.007683,0.034365,0.999405,-0.002928,0.007779,0.002662,0.999966
04284,2,0,-62.0000,9.599669,0.742329,-2.045590,-0.038448,-0.002590,0.030465,0.015076,0.005350,-0.008048,0.176292,0.438249,-1.245598,0.095996,0.007421,-0.020458,1.000000,0.000075,0.000027,-0.000040,-0.999845,0.001412,-0.003858,0.017117,-0.169380,0.439264,-1.962239,0.999384,-0.034240,-0.007667,0.034218,0.999410,-0.002956,0.007763,0.002692,0.999966
04285,2,0,-62.0000,9.615907,0.769371,-2.030371,-0.030650,-0.033144,0.045201,0.014551,0.004602,-0.006758,0.178324,0.436918,-1.243786,0.096159,0.007692,-0.020305,1.000000,0.000073,0.000023,-0.000034,-0.999846,0.001421,-0.003853,0.017037,-0.170307,0.438735,-1.953033,0.999390,-0.034079,-0.007657,0.034057,0.999415,-0.002972,0.007754,0.002710,0.999966
04286,2,0,-65.0000,9.592691,0.775515,-2.054630,-0.060260,-0.029690,0.027950,0.008618,0.009503,-0.008727,0.173696,0.450316,-1.248037,0.095926,0.007752,-0.020551,1.000000,0.000043,0.000048,-0.000044,-0.999847,0.001452,-0.003827,0.016992,-0.173848,0.435667,-1.947968,0.999393,-0.033991,-0.007604,0.033969,0.999418,-0.003034,0.007702,0.002774,0.999966
04287,2,0,-66.0000,9.572464,0.789520,-2.055875,-0.070985,-0.041692,0.009495,0.005035,0.005236,-0.006754,0.173164,0.446624,-1.244427,0.095724,0.007892,-0.020561,1.000000,0.000025,0.000026,-0.000034,-0.999848,0.001473,-0.003820,0.016959,-0.176254,0.434852,-1.944106,0.999396,-0.033924,-0.007590,0.033901,0.999420,-0.003076,0.007689,0.002817,0.999966
04288,2,0,-66.0000,9.592862,0.776696,-2.053386,-0.060078,-0.030250,0.027949,0.003903,0.007793,-0.007208,0.172077,0.441371,-1.250686,0.095928,0.007764,-0.020537,1.000000,0.000020,0.000039,-0.000036,-0.999848,0.001500,-0.003800,0.016940,-0.179267,0.432417,-1.941924,0.999397,-0.033886,-0.007547,0.033863,0.999422,-0.003129,0.007649,0.002871,0.999967
04289,2,0,-64.0000,9.586861,0.726357,-2.034584,-0.026861,0.010762,0.014529,0.000641,0.007051,-0.010470,0.166413,0.450775,-1.250720,0.095868,0.007259,-0.020349,1.000000,0.000003,0.000035,-0.000052,-0.999848,0.001546,-0.003790,0.016932,-0.184503,0.431216,-1.941063,0.999398,-0.033870,-0.007526,0.033847,0.999422,-0.003220,0.007631,0.002963,0.999966
04290,2,0,-65.0000,9.592887,0.742827,-1.987980,0.010855,-0.020531,0.012118,0.002533,0.007797,-0.009484,0.169363,0.448123,-1.248606,0.095928,0.007424,-0.019883,1.000000,0.000013,0.000039,-0.000047,-0.999849,0.001585,-0.003773,0.016917,-0.188890,0.429204,-1.939391,0.999399,-0.033841,-0.007491,0.033817,0.999423,-0.003297,0.007598,0.003041,0.999967
04291,2,0,-65.0000,9.623546,0.741516,-2.016235,-0.008182,-0.008302,0.047716,0.004221,0.011320,-0.012442,0.175796,0.450529,-1.245991,0.096235,0.007410,-0.020168,1.000000,0.000021,0.000057,-0.000062,-0.999849,0.001644,-0.003745,0.016907,-0.195631,0.425925,-1.938272,0.999400,-0.033822,-0.007434,0.033797,0.999423,-0.003414,0.007545,0.003161,0.999967
04292,2,0,-66.0000,9.603370,0.755954,-2.017058,-0.018966,-0.020340,0.029260,0.006112,0.012066,-0.011456,0.171372,0.449570,-1.247788,0.096033,0.007555,-0.020176,1.000000,0.000031,0.000060,-0.000057,-0.999849,0.001695,-0.003712,0.016872,-0.201396,0.421979,-1.934196,0.999403,-0.033751,-0.007365,0.033726,0.999425,-0.003515,0.007479,0.003264,0.999967
04293,2,0,-66.0000,9.606466,0.764675,-1.993121,-0.000036,-0.036072,0.028052,0.007244,0.009509,-0.011000,0.176761,0.440493,-1.240954,0.096064,0.007642,-0.019935,1.000000,0.000036,0.000048,-0.000055,-0.999850,0.001742,-0.003691,0.016835,-0.206715,0.419577,-1.930008,0.999406,-0.033678,-0.007323,0.033652,0.999427,-0.003608,0.007440,0.003359,0.999967
04294,2,0,-62.0000,9.596482,0.790237,-2.025160,-0.040782,-0.047377,0.026739,0.002326,0.010575,-0.013428,0.175559,0.441984,-1.236701,0.095964,0.007896,-0.020257,1.000000,0.000012,0.000053,-0.000067,-0.999850,0.001804,-0.003668,0.016816,-0.213721,0.416802,-1.927892,0.999408,-0.033641,-0.007274,0.033614,0.999428,-0.003730,0.007396,0.003483,0.999967
04295,2,0,-61.0000,9.589540,0.823683,-2.033806,-0.062641,-0.074147,0.024217,-0.002007,0.018024,-0.011303,0.174887,0.443359,-1.245796,0.095894,0.008231,-0.020347,1.000000,-0.000010,0.000090,-0.000057,-0.999851,0.001874,-0.003609,0.016805,-0.221715,0.409939,-1.926591,0.999409,-0.033618,-0.007155,0.033591,0.999428,-0.003870,0.007281,0.003627,0.999967
04296,2,0,-61.0000,9.557490,0.771580,-2.061896,-0.077955,-0.013910,-0.005237,-0.002243,0.015471,-0.013124,0.173114,0.450644,-1.242669,0.095574,0.007709,-0.020626,1.000000,-0.000011,0.000077,-0.000066,-0.999851,0.001948,-0.003563,0.016807,-0.230022,0.404446,-1.926864,0.999410,-0.033623,-0.007059,0.033595,0.999427,-0.004015,0.007190,0.003775,0.999967
04297,2,0,-62.0000,9.564877,0.740363,-2.050330,-0.055859,0.012347,-0.002714,0.002908,0.016961,-0.008874,0.173231,0.453412,-1.246689,0.095647,0.007400,-0.020511,1.000000,0.000015,0.000085,-0.000044,-0.999851,0.002001,-0.003504,0.016785,-0.236036,0.397637,-1.924364,0.999412,-0.033579,-0.006940,0.033551,0.999429,-0.004119,0.007074,0.003884,0.999967
04298,2,0,-61.0000,9.560945,0.781439,-2.035786,-0.058958,-0.029954,-0.006447,0.000170,0.016967,-0.013425,0.166103,0.449240,-1.248406,0.095608,0.007808,-0.020366,1.000000,0.000001,0.000085,-0.000067,-0.999851,0.002076,-0.003451,0.016775,-0.244478,0.391397,-1.923188,0.999413,-0.033559,-0.006831,0.033530,0.999429,-0.004267,0.006970,0.004035,0.999968
04299,2,0,-60.0000,9.580221,0.817128,-1.996504,-0.032360,-0.075954,0.007065,-0.005184,0.013228,-0.011531,0.176754,0.442268,-1.241452,0.095801,0.008165,-0.019972,1.000000,-0.000026,0.000066,-0.000058,-0.999851,0.002145,-0.003413,0.016806,-0.252297,0.386962,-1.926812,0.999412,-0.033622,-0.006754,0.033593,0.999426,-0.004403,0.006898,0.004174,0.999967
04300,2,0,-59.0000,9.584592,0.778420,-2.008124,-0.029135,-0.034251,0.010799,-0.006553,0.013231,-0.013807,0.178620,0.447495,-1.242601,0.095845,0.007777,-0.020088,1.000000,-0.000033,0.000066,-0.000069,-0.999850,0.002222,-0.003378,0.016830,-0.261091,0.382800,-1.929514,0.999411,-0.033669,-0.006681,0.033639,0.999424,-0.004557,0.006831,0.004329,0.999967
04301,2,0,-59.0000,9.571533,0.760931,-1.998880,-0.017864,-0.019739,-0.005135,-0.003644,0.010144,-0.013274,0.162440,0.445423,-1.246871,0.095715,0.007603,-0.019994,1.000000,-0.000018,0.000051,-0.000066,-0.999850,0.002291,-0.003361,0.016823,-0.268939,0.380620,-1.928804,0.999411,-0.033657,-0.006643,0.033626,0.999423,-0.004694,0.006797,0.004468,0.999967
04302,2,0,-59.0000,9.594853,0.756784,-1.973173,0.011871,-0.023809,0.012109,-0.006292,0.006095,-0.014793,0.164039,0.443498,-1.237476,0.095948,0.007560,-0.019735,1.000000,-0.000031,0.000030,-0.000074,-0.999850,0.002360,-0.003361,0.016847,-0.276917,0.380506,-1.931545,0.999410,-0.033705,-0.006641,0.033673,0.999421,-0.004833,0.006800,0.004607,0.999966
04303,2,0,-59.0000,9.605118,0.769479,-2.003575,-0.018024,-0.023342,0.029255,-0.003995,0.006314,-0.016005,0.174517,0.453936,-1.247714,0.096051,0.007687,-0.020039,1.000000,-0.000020,0.000032,-0.000080,-0.999849,0.002435,-0.003362,0.016880,-0.285499,0.380516,-1.935313,0.999408,-0.033770,-0.006641,0.033738,0.999418,-0.004983,0.006806,0.004756,0.999966
04304,2,0,-59.0000,9.584812,0.784368,-2.004754,-0.028814,-0.035371,0.010796,-0.003764,0.008868,-0.014184,0.175849,0.443599,-1.238012,0.095848,0.007837,-0.020052,1.000000,-0.000019,0.000044,-0.000071,-0.999849,0.002504,-0.003348,0.016891,-0.293348,0.378792,-1.936590,0.999407,-0.033793,-0.006611,0.033759,0.999417,-0.005120,0.006780,0.004894,0.999965
04305,2,0,-59.0000,9.605244,0.772404,-2.001843,-0.017841,-0.023885,0.029254,0.002838,0.011332,-0.014709,0.173430,0.445311,-1.243486,0.096052,0.007717,-0.020024,1.000000,0.000014,0.000057,-0.000074,-0.999849,0.002575,-0.003327,0.016861,-0.301451,0.376182,-1.933210,0.999409,-0.033734,-0.006566,0.033699,0.999418,-0.005261,0.006739,0.005037,0.999965
04306,2,0,-59.0000,9.597981,0.770363,-1.946944,0.031000,-0.040422,0.010891,0.005750,0.008246,-0.014176,0.167158,0.446588,-1.255124,0.095980,0.007697,-0.019473,1.000000,0.000029,0.000041,-0.000071,-0.999849,0.002632,-0.003316,0.016826,-0.308005,0.374821,-1.929184,0.999412,-0.033664,-0.006542,0.033629,0.999420,-0.005376,0.006719,0.005152,0.999964
04307,2,0,-58.0000,9.523824,0.792591,-1.943993,0.009676,-0.061104,-0.060421,0.006594,0.007494,-0.010611,0.173230,0.450866,-1.246189,0.095238,0.007921,-0.019443,1.000000,0.000033,0.000037,-0.000053,-0.999850,0.002673,-0.003304,0.016789,-0.312602,0.373391,-1.925025,0.999414,-0.033591,-0.006517,0.033556,0.999422,-0.005456,0.006696,0.005234,0.999964
04308,2,0,-56.0000,9.587996,0.796759,-1.978676,-0.009655,-0.051988,0.009576,0.007731,0.004938,-0.010155,0.174739,0.448302,-1.246014,0.095880,0.007963,-0.019789,1.000000,0.000039,0.000025,-0.000051,-0.999851,0.002704,-0.003301,0.016749,-0.316180,0.373072,-1.920482,0.999417,-0.033512,-0.006511,0.033476,0.999424,-0.005518,0.006692,0.005297,0.999964
04309,2,0,-56.0000,9.598255,0.808830,-2.009355,-0.039500,-0.051502,0.026723,0.003949,0.003443,-0.012131,0.178086,0.443555,-1.245983,0.095983,0.008083,-0.020095,1.000000,0.000020,0.000017,-0.000061,-0.999851,0.002749,-0.003312,0.016722,-0.321316,0.374208,-1.917355,0.999419,-0.033457,-0.006531,0.033421,0.999426,-0.005608,0.006715,0.005386,0.999963
04310,2,0,-55.0000,9.577866,0.823126,-2.011106,-0.050292,-0.063526,0.008261,0.004679,0.001415,-0.009476,0.180149,0.452856,-1.254166,0.095779,0.008227,-0.020112,1.000000,0.000023,0.000007,-0.000047,-0.999851,0.002775,-0.003325,0.016699,-0.324268,0.375660,-1.914746,0.999420,-0.033412,-0.006556,0.033375,0.999427,-0.005659,0.006742,0.005437,0.999962
04311,2,0,-56.0000,9.614269,0.837284,-1.994055,-0.031619,-0.082340,0.041433,0.001243,0.003751,-0.008720,0.171411,0.450422,-1.246548,0.096143,0.008369,-0.019942,1.000000,0.000006,0.000019,-0.000044,-0.999852,0.002806,-0.003329,0.016670,-0.327913,0.376117,-1.911480,0.999422,-0.033355,-0.006564,0.033317,0.999428,-0.005723,0.006752,0.005501,0.999962
04312,2,0,-55.0000,9.587856,0.800311,-1.977924,-0.009282,-0.053096,0.009570,0.003288,-0.003915,-0.009629,0.172574,0.452712,-1.252291,0.095879,0.007999,-0.019777,1.000000,0.000016,-0.000020,-0.000048,-0.999852,0.002825,-0.003368,0.016656,-0.330144,0.380478,-1.909859,0.999422,-0.033326,-0.006641,0.033288,0.999429,-0.005762,0.006829,0.005538,0.999961
04313,2,0,-55.0000,9.564507,0.806652,-2.002952,-0.038856,-0.049558,-0.007672,-0.001693,0.001503,-0.007130,0.169394,0.449675,-1.244867,0.095645,0.008063,-0.020030,1.000000,-0.000008,0.000008,-0.000036,-0.999851,0.002850,-0.003378,0.016669,-0.332997,0.381633,-1.911339,0.999421,-0.033352,-0.006661,0.033314,0.999428,-0.005812,0.006851,0.005586,0.999961
04314,2,0,-56.0000,9.551294,0.788392,-1.994844,-0.027656,-0.035084,-0.023603,-0.002852,-0.001273,-0.005463,0.171934,0.451868,-1.252653,0.095513,0.007881,-0.019948,1.000000,-0.000014,-0.000006,-0.000027,-0.999851,0.002861,-0.003397,0.016688,-0.334269,0.383761,-1.913515,0.999420,-0.033390,-0.006698,0.033351,0.999427,-0.005834,0.006889,0.005607,0.999961
04315,2,0,-58.0000,9.602155,0.773519,-2.022231,-0.035810,-0.011154,0.030469,0.000990,-0.004136,-0.008418,0.171032,0.442710,-1.244220,0.096022,0.007731,-0.020220,1.000000,0.000005,-0.000021,-0.000042,-0.999851,0.002879,-0.003436,0.016691,-0.336416,0.388184,-1.913940,0.999419,-0.033398,-0.006775,0.033358,0.999426,-0.005871,0.006967,0.005642,0.999960
04316,2,0,-58.0000,9.584382,0.759696,-1.937741,0.042985,-0.028426,-0.005052,0.003497,-0.006693,-0.005686,0.177278,0.451754,-1.243562,0.095845,0.007595,-0.019374,1.000000,0.000017,-0.000033,-0.000028,-0.999851,0.002875,-0.003481,0.016681,-0.336028,0.393308,-1.912765,0.999419,-0.033377,-0.006864,0.033337,0.999427,-0.005865,0.007056,0.005632,0.999959
04317,2,0,-59.0000,9.607601,0.790154,-1.977656,0.002001,-0.042724,0.028025,0.012896,-0.008587,-0.006588,0.169886,0.449356,-1.246970,0.096077,0.007900,-0.019772,1.000000,0.000064,-0.000043,-0.000033,-0.999852,0.002864,-0.003538,0.016618,-0.334860,0.399945,-1.905548,0.999423,-0.033251,-0.006980,0.033211,0.999431,-0.005844,0.007171,0.005609,0.999959
04318,2,0,-60.0000,9.553478,0.798292,-1.974518,-0.008511,-0.051689,-0.024828,0.016330,-0.010921,-0.007343,0.173058,0.441069,-1.243156,0.095536,0.007981,-0.019739,1.000000,0.000082,-0.000055,-0.000037,-0.999853,0.002846,-0.003606,0.016545,-0.332982,0.407712,-1.897176,0.999427,-0.033105,-0.007116,0.033064,0.999436,-0.005811,0.007304,0.005573,0.999958
04319,2,0,-60.0000,9.569304,0.825416,-1.960640,-0.000736,-0.082239,-0.010125,0.009343,-0.007529,-0.006742,0.172552,0.451718,-1.248291,0.095694,0.008252,-0.019602,1.000000,0.000047,-0.000038,-0.000034,-0.999853,0.002841,-0.003658,0.016504,-0.332452,0.413708,-1.892550,0.999428,-0.033024,-0.007221,0.032983,0.999439,-0.005802,0.007408,0.005561,0.999957
04320,2,0,-58.0000,9.596613,0.780201,-1.949768,0.032179,-0.044329,0.010870,0.015169,-0.013697,-0.005675,0.171773,0.444166,-1.245627,0.095968,0.007801,-0.019491,1.000000,0.000076,-0.000068,-0.000028,-0.999854,0.002813,-0.003735,0.016439,-0.329326,0.422660,-1.885134,0.999432,-0.032895,-0.007377,0.032853,0.999444,-0.005748,0.007562,0.005502,0.999956
04321,2,0,-56.0000,9.586265,0.804830,-1.983790,-0.008538,-0.055572,0.009557,0.017309,-0.005061,-0.004992,0.176698,0.450210,-1.246184,0.095863,0.008048,-0.019835,1.000000,0.000087,-0.000025,-0.000025,-0.999855,0.002796,-0.003773,0.016363,-0.327403,0.427011,-1.876365,0.999436,-0.032742,-0.007453,0.032700,0.999449,-0.005714,0.007636,0.005467,0.999956
04322,2,0,-56.0000,9.610911,0.787112,-2.059349,-0.065208,-0.012407,0.047620,0.019720,-0.003562,-0.005293,0.171401,0.450049,-1.241053,0.096110,0.007871,-0.020591,1.000000,0.000099,-0.000018,-0.000026,-0.999857,0.002778,-0.003802,0.016272,-0.325361,0.430419,-1.866012,0.999442,-0.032561,-0.007512,0.032519,0.999455,-0.005678,0.007693,0.005431,0.999956
04323,2,0,-56.0000,9.587514,0.792706,-2.084776,-0.094777,-0.008853,0.030383,0.021493,-0.004090,-0.005215,0.176485,0.449225,-1.239397,0.095876,0.007927,-0.020845,1.000000,0.000107,-0.000020,-0.000026,-0.999858,0.002760,-0.003836,0.016175,-0.323321,0.434343,-1.854841,0.999447,-0.032367,-0.007581,0.032324,0.999462,-0.005643,0.007759,0.005395,0.999955
04324,2,0,-56.0000,9.555430,0.842932,-2.020250,-0.059984,-0.079106,-0.010222,0.010322,-0.001670,-0.004390,0.176654,0.449908,-1.243428,0.095555,0.008428,-0.020201,1.000000,0.000052,-0.000008,-0.000022,-0.999859,0.002751,-0.003854,0.016131,-0.322316,0.436527,-1.849775,0.999450,-0.032278,-0.007619,0.032236,0.999464,-0.005625,0.007796,0.005377,0.999955
04325,2,0,-56.0000,9.588769,0.813410,-1.962516,0.010622,-0.072156,0.008325,-0.002854,-0.001278,-0.005461,0.180663,0.444452,-1.246535,0.095888,0.008131,-0.019625,1.000000,-0.000014,-0.000006,-0.000027,-0.999858,0.002765,-0.003876,0.016145,-0.323963,0.438968,-1.851422,0.999449,-0.032307,-0.007661,0.032264,0.999463,-0.005654,0.007840,0.005404,0.999955
04326,2,0,-57.0000,9.582861,0.798422,-2.008533,-0.026947,-0.041438,0.010777,-0.004744,-0.002027,-0.006448,0.178377,0.450876,-1.250540,0.095829,0.007981,-0.020085,1.000000,-0.000024,-0.000010,-0.000032,-0.999858,0.002781,-0.003900,0.016172,-0.325855,0.441684,-1.854579,0.999446,-0.032362,-0.007709,0.032319,0.999461,-0.005687,0.007889,0.005435,0.999954
04327,2,0,-57.0000,9.607498,0.745748,-2.019371,-0.012774,0.012012,0.033007,-0.003356,0.003304,-0.006298,0.163456,0.450357,-1.245341,0.096075,0.007454,-0.020195,1.000000,-0.000017,0.000017,-0.000031,-0.999858,0.002806,-0.003902,0.016173,-0.328715,0.441869,-1.854678,0.999446,-0.032364,-0.007712,0.032320,0.999461,-0.005737,0.007894,0.005485,0.999954
