// General information: 
//  MT Manager version: 2020.5.0 
//  XDA version: 2020.5.0 build 5678 rev 108182 built on 2021-02-04
// Device information: 
//  DeviceId: 00B41E96
//  ProductCode: MTW2-3A7G6
//  Firmware Version: 4.3.5
//  Hardware Version: 1.1.0
// Device settings: 
//  Filter Profile: human(46.1)
//  Option Flags: Orientation Smoother Disabled, Position/Velocity Smoother Disabled, Continuous Zero Rotation Update Disabled, AHS Disabled, ICC Disabled
// Coordinate system: ENU
PacketCounter,Acc_X,Acc_Y,Acc_Z,FreeAcc_E,FreeAcc_N,FreeAcc_U,Gyr_X,Gyr_Y,Gyr_Z,Mag_X,Mag_Y,Mag_Z,VelInc_X,VelInc_Y,VelInc_Z,OriInc_q0,OriInc_q1,OriInc_q2,OriInc_q3,Quat_q0,Quat_q1,Quat_q2,Quat_q3,Roll,Pitch,Yaw,Mat[1][1],Mat[2][1],Mat[3][1],Mat[1][2],Mat[2][2],Mat[3][2],Mat[1][3],Mat[2][3],Mat[3][3]
08622,8.950687,-0.867500,3.982120,0.050345,0.018046,0.022035,-0.032881,0.006707,0.005280,0.398171,-0.367680,-0.771771,0.089508,-0.008666,0.039820,1.000000,-0.000164,0.000034,0.000026,0.999987,0.003425,0.001062,-0.003758,0.392021,0.123167,-0.430247,0.999969,-0.007509,-0.002150,0.007524,0.999948,0.006842,0.002098,-0.006858,0.999974
08623,8.914051,-0.851556,3.970206,0.049961,0.033261,-0.017567,-0.033926,0.009739,0.009508,0.400495,-0.374365,-0.768272,0.089143,-0.008505,0.039699,1.000000,-0.000170,0.000049,0.000048,0.999986,0.003303,0.001120,-0.003895,0.377963,0.129799,-0.445859,0.999967,-0.007782,-0.002265,0.007796,0.999948,0.006597,0.002214,-0.006614,0.999976
08624,8.875212,-0.876529,4.002186,0.001132,0.019449,-0.037473,-0.036300,0.007719,0.011301,0.404845,-0.373256,-0.770268,0.088754,-0.008753,0.040020,1.000000,-0.000181,0.000039,0.000057,0.999986,0.003168,0.001171,-0.004028,0.362501,0.135680,-0.461146,0.999965,-0.008048,-0.002368,0.008063,0.999947,0.006327,0.002317,-0.006346,0.999977
08625,8.906245,-0.909572,3.962162,0.043275,-0.020085,-0.022643,-0.026987,0.009400,0.012121,0.403115,-0.373256,-0.774040,0.089065,-0.009085,0.039619,1.000000,-0.000135,0.000047,0.000061,0.999986,0.003055,0.001234,-0.004124,0.349537,0.142805,-0.472137,0.999963,-0.008240,-0.002492,0.008255,0.999947,0.006101,0.002442,-0.006121,0.999978
08626,8.898073,-0.889628,3.969324,0.039123,0.003465,-0.028970,-0.026956,0.008681,0.014773,0.408200,-0.376124,-0.771538,0.088983,-0.008884,0.039691,1.000000,-0.000135,0.000043,0.000074,0.999986,0.002926,0.001294,-0.004208,0.334677,0.149645,-0.481803,0.999961,-0.008409,-0.002612,0.008424,0.999947,0.005841,0.002563,-0.005863,0.999980
08627,8.905345,-0.914241,3.963111,0.043326,-0.019488,-0.022642,-0.031764,0.006081,0.013054,0.404600,-0.368707,-0.768006,0.089055,-0.009130,0.039630,1.000000,-0.000159,0.000030,0.000065,0.999986,0.002795,0.001342,-0.004328,0.319658,0.155166,-0.495478,0.999959,-0.008648,-0.002708,0.008663,0.999947,0.005579,0.002660,-0.005602,0.999981
08628,8.911202,-0.921456,3.986481,0.024521,-0.018272,-0.007092,-0.027586,0.005440,0.016210,0.402648,-0.375392,-0.773826,0.089114,-0.009202,0.039864,1.000000,-0.000138,0.000027,0.000081,0.999986,0.002655,0.001388,-0.004410,0.303525,0.160387,-0.504969,0.999957,-0.008813,-0.002799,0.008828,0.999947,0.005297,0.002752,-0.005322,0.999982
08629,8.888459,-0.933065,3.990967,0.009536,-0.025505,-0.024817,-0.031064,0.007892,0.016931,0.402904,-0.372742,-0.769377,0.088887,-0.009317,0.039908,1.000000,-0.000155,0.000039,0.000085,0.999986,0.002509,0.001448,-0.004516,0.286793,0.167248,-0.517082,0.999955,-0.009025,-0.002919,0.009039,0.999947,0.005005,0.002874,-0.005032,0.999983
08630,8.910339,-0.926779,3.987177,0.024543,-0.017651,-0.007091,-0.030711,0.006887,0.015525,0.402089,-0.372742,-0.771152,0.089105,-0.009255,0.039870,1.000000,-0.000154,0.000034,0.000078,0.999985,0.002367,0.001500,-0.004615,0.270428,0.173187,-0.528441,0.999953,-0.009223,-0.003023,0.009237,0.999946,0.004720,0.002979,-0.004748,0.999984
08631,8.901506,-0.965144,4.008139,-0.005112,-0.047252,-0.002936,-0.028996,0.006390,0.012519,0.406787,-0.373769,-0.771159,0.089017,-0.009640,0.040080,1.000000,-0.000145,0.000032,0.000063,0.999985,0.002245,0.001547,-0.004715,0.256444,0.178499,-0.539946,0.999951,-0.009424,-0.003115,0.009438,0.999945,0.004476,0.003073,-0.004505,0.999985
08632,8.894949,-0.962644,3.985236,0.013687,-0.047795,-0.018483,-0.032790,0.005310,0.010610,0.406752,-0.369733,-0.773560,0.088951,-0.009615,0.039852,1.000000,-0.000164,0.000027,0.000053,0.999985,0.002118,0.001586,-0.004833,0.241871,0.182906,-0.553450,0.999948,-0.009659,-0.003192,0.009673,0.999944,0.004221,0.003151,-0.004252,0.999986
08633,8.902326,-0.986772,3.978786,0.017905,-0.070727,-0.012149,-0.025568,0.005393,0.006506,0.406092,-0.367084,-0.771108,0.089025,-0.009860,0.039787,1.000000,-0.000128,0.000027,0.000033,0.999984,0.002028,0.001624,-0.004938,0.231456,0.187207,-0.565528,0.999946,-0.009870,-0.003267,0.009883,0.999943,0.004040,0.003227,-0.004072,0.999987
08634,8.880550,-0.939005,3.969112,0.028402,-0.024850,-0.040363,-0.027651,0.003813,0.001586,0.405312,-0.371119,-0.770482,0.088806,-0.009384,0.039691,1.000000,-0.000138,0.000019,0.000008,0.999984,0.001950,0.001644,-0.005050,0.222499,0.189564,-0.578378,0.999944,-0.010094,-0.003309,0.010107,0.999941,0.003883,0.003269,-0.003917,0.999987
08635,8.885835,-1.003048,4.006241,-0.015853,-0.076725,-0.014320,-0.023156,0.002880,0.000678,0.408448,-0.365698,-0.772189,0.088859,-0.010026,0.040062,1.000000,-0.000116,0.000014,0.000003,0.999984,0.001886,0.001662,-0.005154,0.215130,0.191608,-0.590282,0.999941,-0.010302,-0.003344,0.010315,0.999940,0.003755,0.003305,-0.003789,0.999987
08636,8.922676,-0.964125,4.004659,0.010014,-0.038133,0.014796,-0.022084,0.002947,0.005790,0.404396,-0.371119,-0.772479,0.089228,-0.009634,0.040046,1.000000,-0.000110,0.000015,0.000029,0.999983,0.001800,0.001684,-0.005232,0.205281,0.194027,-0.599210,0.999940,-0.010458,-0.003386,0.010470,0.999939,0.003583,0.003349,-0.003618,0.999988
08637,8.923966,-0.982809,3.974956,0.033017,-0.061893,0.005583,-0.022111,0.003674,0.003142,0.405523,-0.371632,-0.775145,0.089241,-0.009822,0.039749,1.000000,-0.000111,0.000018,0.000016,0.999983,0.001727,0.001708,-0.005328,0.196887,0.196801,-0.610241,0.999937,-0.010650,-0.003435,0.010662,0.999937,0.003436,0.003398,-0.003473,0.999988
08638,8.959854,-1.002064,3.987689,0.033378,-0.076359,0.045194,-0.019764,0.010238,0.005404,0.405973,-0.373769,-0.772934,0.089601,-0.010014,0.039873,1.000000,-0.000099,0.000051,0.000027,0.999982,0.001656,0.001765,-0.005400,0.188676,0.203226,-0.618445,0.999935,-0.010794,-0.003547,0.010805,0.999936,0.003293,0.003511,-0.003331,0.999988
08639,8.906993,-0.998920,4.003507,-0.000776,-0.067951,0.003413,-0.014981,0.013560,0.004481,0.404810,-0.369220,-0.772669,0.089073,-0.009984,0.040030,1.000000,-0.000075,0.000068,0.000022,0.999982,0.001607,0.001837,-0.005460,0.183000,0.211494,-0.625379,0.999934,-0.010915,-0.003691,0.010926,0.999935,0.003194,0.003656,-0.003234,0.999988
08640,8.944930,-0.977208,3.973076,0.048044,-0.053443,0.023312,-0.011476,0.010383,0.006407,0.405727,-0.369220,-0.770672,0.089452,-0.009767,0.039727,1.000000,-0.000057,0.000052,0.000032,0.999982,0.001549,0.001895,-0.005492,0.176295,0.218118,-0.629042,0.999932,-0.010979,-0.003807,0.010990,0.999935,0.003077,0.003773,-0.003119,0.999988
08641,8.885781,-0.969001,3.966037,0.032697,-0.045876,-0.034019,-0.014716,0.018547,0.001822,0.404396,-0.371119,-0.772479,0.088862,-0.009686,0.039653,1.000000,-0.000074,0.000093,0.000009,0.999981,0.001515,0.001989,-0.005560,0.172368,0.228843,-0.636792,0.999930,-0.011114,-0.003994,0.011126,0.999934,0.003008,0.003960,-0.003053,0.999987
08642,8.840471,-0.987659,3.975513,0.002676,-0.060596,-0.069463,-0.018799,0.013213,-0.000078,0.406541,-0.369220,-0.768897,0.088407,-0.009873,0.039750,1.000000,-0.000094,0.000066,-0.000000,0.999981,0.001473,0.002053,-0.005640,0.167517,0.236191,-0.645933,0.999928,-0.011273,-0.004122,0.011285,0.999932,0.002924,0.004089,-0.002970,0.999987
08643,8.876211,-1.005950,3.988798,0.003074,-0.075136,-0.029850,-0.005353,0.011126,-0.005459,0.402402,-0.370843,-0.771564,0.088764,-0.010061,0.039883,1.000000,-0.000027,0.000056,-0.000027,0.999981,0.001485,0.002102,-0.005675,0.168822,0.241852,-0.649917,0.999927,-0.011343,-0.004221,0.011355,0.999931,0.002946,0.004187,-0.002994,0.999987
08644,8.876653,-0.947385,3.975833,0.028573,-0.021739,-0.040356,-0.009173,0.010776,-0.010020,0.410179,-0.365698,-0.768417,0.088768,-0.009476,0.039754,1.000000,-0.000046,0.000054,-0.000050,0.999980,0.001505,0.002143,-0.005730,0.171019,0.246503,-0.656226,0.999925,-0.011453,-0.004302,0.011466,0.999930,0.002985,0.004268,-0.003034,0.999986
08645,8.854008,-0.955657,3.980793,0.013614,-0.028978,-0.058077,-0.007461,0.010277,-0.013030,0.406506,-0.365185,-0.771298,0.088542,-0.009561,0.039804,1.000000,-0.000037,0.000051,-0.000065,0.999980,0.001543,0.002180,-0.005792,0.175346,0.250784,-0.663314,0.999923,-0.011577,-0.004377,0.011590,0.999928,0.003060,0.004341,-0.003111,0.999986
08646,8.846153,-0.932566,3.988079,0.009457,-0.005437,-0.064418,-0.006012,0.004793,-0.013381,0.406272,-0.363105,-0.773609,0.088462,-0.009330,0.039879,1.000000,-0.000030,0.000024,-0.000067,0.999979,0.001577,0.002187,-0.005837,0.179278,0.251650,-0.668435,0.999922,-0.011666,-0.004392,0.011680,0.999927,0.003129,0.004355,-0.003180,0.999985
08647,8.850852,-0.919089,4.041183,-0.032287,0.019938,-0.039662,-0.006301,0.000535,-0.013370,0.406272,-0.363105,-0.773609,0.088508,-0.009196,0.040412,1.000000,-0.000032,0.000003,-0.000067,0.999979,0.001603,0.002174,-0.005894,0.182208,0.250239,-0.674972,0.999921,-0.011780,-0.004367,0.011794,0.999925,0.003180,0.004330,-0.003231,0.999985
08648,8.844750,-0.913583,4.018041,-0.013488,0.019389,-0.055212,-0.010765,0.000746,-0.009810,0.403539,-0.364158,-0.767519,0.088447,-0.009138,0.040181,1.000000,-0.000054,0.000004,-0.000049,0.999979,0.001607,0.002166,-0.005951,0.182697,0.249333,-0.681519,0.999920,-0.011894,-0.004352,0.011908,0.999924,0.003189,0.004313,-0.003240,0.999985
08649,8.864950,-0.945031,4.057362,-0.046930,-0.001654,-0.017770,-0.008276,-0.003951,-0.007701,0.406752,-0.369733,-0.773560,0.088648,-0.009452,0.040576,1.000000,-0.000041,-0.000020,-0.000039,0.999978,0.001599,0.002138,-0.006000,0.181790,0.246111,-0.687157,0.999919,-0.011993,-0.004295,0.012006,0.999923,0.003173,0.004257,-0.003224,0.999986
08650,8.887560,-0.935252,4.052839,-0.031923,0.006215,-0.000049,-0.004877,-0.004219,-0.016369,0.411072,-0.364132,-0.773393,0.088874,-0.009359,0.040530,1.000000,-0.000024,-0.000021,-0.000082,0.999978,0.001639,0.002098,-0.006041,0.186411,0.241556,-0.691897,0.999918,-0.012075,-0.004216,0.012089,0.999922,0.003253,0.004176,-0.003304,0.999986
08651,8.911694,-0.942399,4.018558,0.006105,-0.009985,0.008467,-0.008004,-0.002772,-0.017055,0.405312,-0.371119,-0.770482,0.089116,-0.009430,0.040187,1.000000,-0.000040,-0.000014,-0.000085,0.999978,0.001677,0.002067,-0.006115,0.190685,0.238082,-0.700304,0.999917,-0.012222,-0.004155,0.012236,0.999920,0.003328,0.004114,-0.003379,0.999986
08652,8.851888,-0.914938,4.039856,-0.032230,0.021690,-0.039666,-0.004185,-0.002422,-0.012494,0.408170,-0.371632,-0.769376,0.088518,-0.009154,0.040400,1.000000,-0.000021,-0.000012,-0.000062,0.999978,0.001703,0.002041,-0.006146,0.193733,0.235043,-0.703878,0.999916,-0.012285,-0.004102,0.012298,0.999919,0.003381,0.004060,-0.003431,0.999986
08653,8.860717,-0.878292,4.018619,-0.002518,0.051771,-0.043843,-0.010239,-0.012247,-0.008729,0.406330,-0.368707,-0.764234,0.088604,-0.008785,0.040192,1.000000,-0.000051,-0.000061,-0.000044,0.999977,0.001695,0.001974,-0.006199,0.192869,0.227413,-0.709937,0.999915,-0.012390,-0.003969,0.012404,0.999917,0.003366,0.003927,-0.003415,0.999986
08654,8.882969,-0.927241,4.026939,-0.013004,0.006581,-0.015599,-0.010499,-0.017232,-0.006071,0.400293,-0.364215,-0.775163,0.088826,-0.009273,0.040278,1.000000,-0.000052,-0.000086,-0.000030,0.999977,0.001664,0.001883,-0.006238,0.189352,0.216986,-0.714506,0.999915,-0.012470,-0.003787,0.012483,0.999917,0.003305,0.003746,-0.003352,0.999987
08655,8.871325,-0.917554,3.979054,0.024587,0.005137,-0.046698,-0.011861,-0.017740,-0.004471,0.402869,-0.368707,-0.771778,0.088710,-0.009175,0.039799,1.000000,-0.000059,-0.000089,-0.000022,0.999977,0.001623,0.001791,-0.006285,0.184700,0.206435,-0.719857,0.999915,-0.012563,-0.003603,0.012575,0.999916,0.003224,0.003562,-0.003269,0.999988
08656,8.849696,-0.926762,3.981566,0.009577,-0.002067,-0.064417,-0.012558,-0.015726,-0.001645,0.402658,-0.368193,-0.767115,0.088494,-0.009266,0.039823,1.000000,-0.000063,-0.000079,-0.000008,0.999977,0.001570,0.001713,-0.006325,0.178634,0.197440,-0.724547,0.999914,-0.012645,-0.003446,0.012656,0.999915,0.003118,0.003406,-0.003161,0.999989
08657,8.946685,-0.971346,3.970563,0.048270,-0.047900,0.023339,-0.007341,-0.019402,-0.002735,0.406338,-0.371632,-0.773370,0.089463,-0.009713,0.039715,1.000000,-0.000037,-0.000097,-0.000014,0.999977,0.001531,0.001615,-0.006344,0.174290,0.186194,-0.726736,0.999914,-0.012684,-0.003250,0.012693,0.999915,0.003042,0.003211,-0.003083,0.999990
08658,8.962100,-0.940143,3.971381,0.059118,-0.016817,0.034708,-0.004588,-0.019111,-0.003284,0.399646,-0.370330,-0.772448,0.089617,-0.009402,0.039723,1.000000,-0.000023,-0.000096,-0.000016,0.999978,0.001498,0.001518,-0.006351,0.170561,0.175081,-0.727472,0.999915,-0.012696,-0.003056,0.012705,0.999915,0.002977,0.003018,-0.003015,0.999991
08659,8.962777,-0.939958,3.969896,0.059084,-0.016564,0.034708,-0.006067,-0.012898,-0.005576,0.408950,-0.367597,-0.770002,0.089625,-0.009401,0.039705,1.000000,-0.000030,-0.000064,-0.000028,0.999978,0.001483,0.001447,-0.006372,0.168892,0.166946,-0.729972,0.999915,-0.012740,-0.002914,0.012749,0.999914,0.002948,0.002876,-0.002985,0.999991
08660,8.970924,-0.961758,3.962256,0.063245,-0.039428,0.041062,-0.002017,-0.006835,-0.006323,0.405727,-0.369220,-0.770672,0.089708,-0.009620,0.039626,1.000000,-0.000010,-0.000034,-0.000032,0.999978,0.001482,0.001407,-0.006379,0.168810,0.162265,-0.730741,0.999915,-0.012753,-0.002832,0.012762,0.999914,0.002946,0.002794,-0.002982,0.999992
08661,8.949525,-0.912148,3.952190,0.073813,0.006369,0.012806,-0.002080,-0.001572,-0.004921,0.403115,-0.373256,-0.774040,0.089495,-0.009123,0.039523,1.000000,-0.000010,-0.000008,-0.000025,0.999977,0.001484,0.001398,-0.006397,0.168990,0.161241,-0.732785,0.999914,-0.012789,-0.002814,0.012797,0.999914,0.002949,0.002776,-0.002985,0.999992
08662,8.903463,-0.912601,3.990184,0.020833,0.015706,-0.013433,-0.002779,0.000439,-0.002096,0.404361,-0.367084,-0.774880,0.089035,-0.009126,0.039902,1.000000,-0.000014,0.000002,-0.000010,0.999977,0.001470,0.001397,-0.006402,0.167472,0.161179,-0.733361,0.999914,-0.012799,-0.002813,0.012807,0.999914,0.002923,0.002775,-0.002959,0.999992
08663,8.949498,-0.911827,3.952326,0.073782,0.006990,0.012806,-0.003883,0.004916,-0.003154,0.400425,-0.366294,-0.773075,0.089496,-0.009119,0.039521,1.000000,-0.000019,0.000025,-0.000016,0.999977,0.001467,0.001416,-0.006420,0.167095,0.163309,-0.735470,0.999914,-0.012836,-0.002850,0.012844,0.999913,0.002916,0.002813,-0.002953,0.999992
08664,8.947906,-0.894428,3.982413,0.050816,0.031416,0.021999,-0.005907,0.001884,-0.002780,0.409154,-0.365185,-0.765529,0.089479,-0.008944,0.039824,1.000000,-0.000030,0.000009,-0.000014,0.999977,0.001452,0.001422,-0.006442,0.165346,0.163966,-0.737912,0.999913,-0.012879,-0.002862,0.012887,0.999913,0.002886,0.002824,-0.002922,0.999992
08665,8.947719,-0.894510,3.982815,0.050859,0.031738,0.021998,-0.009099,0.008592,-0.002061,0.405523,-0.371632,-0.775145,0.089479,-0.008944,0.039825,1.000000,-0.000045,0.000043,-0.000010,0.999977,0.001435,0.001463,-0.006487,0.163368,0.168724,-0.743148,0.999912,-0.012970,-0.002945,0.012978,0.999912,0.002851,0.002908,-0.002889,0.999992
08666,9.001116,-0.916336,3.938928,0.108001,-0.000117,0.054595,-0.010523,0.013345,0.000942,0.406092,-0.367084,-0.771108,0.090014,-0.009161,0.039384,1.000000,-0.000053,0.000067,0.000005,0.999977,0.001406,0.001529,-0.006527,0.160019,0.176270,-0.747751,0.999910,-0.013050,-0.003076,0.013059,0.999911,0.002793,0.003040,-0.002833,0.999991
08667,8.931993,-0.926562,3.982500,0.040037,0.001608,0.010638,-0.009573,0.020125,0.002160,0.404361,-0.367084,-0.774880,0.089324,-0.009263,0.039816,1.000000,-0.000048,0.000101,0.000011,0.999976,0.001385,0.001631,-0.006572,0.157429,0.187898,-0.752837,0.999908,-0.013139,-0.003279,0.013148,0.999910,0.002748,0.003243,-0.002791,0.999991
08668,8.951936,-0.900782,4.010069,0.032077,0.033582,0.037544,-0.014465,0.023529,-0.000805,0.403049,-0.364728,-0.774279,0.089524,-0.009005,0.040091,1.000000,-0.000072,0.000118,-0.000004,0.999976,0.001366,0.001744,-0.006639,0.155250,0.200891,-0.760452,0.999906,-0.013272,-0.003506,0.013281,0.999908,0.002710,0.003470,-0.002756,0.999990
08669,8.966446,-0.945615,3.998526,0.040355,-0.012449,0.050262,-0.018253,0.022456,-0.002713,0.409130,-0.363618,-0.772502,0.089669,-0.009454,0.039976,1.000000,-0.000091,0.000112,-0.000014,0.999975,0.001346,0.001847,-0.006732,0.152812,0.212739,-0.771170,0.999903,-0.013459,-0.003713,0.013469,0.999906,0.002667,0.003677,-0.002717,0.999990
08670,8.959261,-0.941128,3.977548,0.059156,-0.012997,0.034713,-0.014200,0.028523,-0.003453,0.404120,-0.362078,-0.768054,0.089598,-0.009410,0.039763,1.000000,-0.000071,0.000143,-0.000017,0.999974,0.001346,0.001982,-0.006805,0.152638,0.228161,-0.779536,0.999900,-0.013605,-0.003982,0.013616,0.999904,0.002664,0.003946,-0.002718,0.999989
08671,8.980227,-0.932339,3.976470,0.074206,-0.005058,0.052428,-0.014723,0.041523,-0.004515,0.403370,-0.370606,-0.769591,0.089810,-0.009322,0.039747,1.000000,-0.000074,0.000208,-0.000023,0.999973,0.001360,0.002181,-0.006902,0.154156,0.250943,-0.790550,0.999895,-0.013797,-0.004380,0.013809,0.999901,0.002690,0.004342,-0.002751,0.999987
08672,8.917827,-0.964511,4.015353,0.010384,-0.026490,0.014834,-0.016081,0.041019,-0.002912,0.409836,-0.363105,-0.765842,0.089186,-0.009643,0.040136,1.000000,-0.000080,0.000205,-0.000015,0.999972,0.001367,0.002376,-0.006988,0.154766,0.273404,-0.800447,0.999891,-0.013970,-0.004772,0.013983,0.999899,0.002701,0.004734,-0.002768,0.999985
08673,8.902286,-0.937758,4.002569,0.025079,-0.003903,-0.007077,-0.012311,0.042832,-0.003639,0.409545,-0.361719,-0.772693,0.089031,-0.009377,0.040007,1.000000,-0.000062,0.000214,-0.000018,0.999971,0.001390,0.002583,-0.007067,0.157220,0.297128,-0.809405,0.999887,-0.014126,-0.005186,0.014140,0.999896,0.002744,0.005147,-0.002817,0.999983
08674,8.900493,-0.938165,4.006458,0.025078,-0.003566,-0.007077,-0.008181,0.046710,0.003569,0.408920,-0.363105,-0.767839,0.089014,-0.009378,0.040044,1.000000,-0.000041,0.000234,0.000018,0.999970,0.001391,0.002814,-0.007107,0.157149,0.323613,-0.813989,0.999883,-0.014206,-0.005648,0.014222,0.999895,0.002743,0.005609,-0.002823,0.999980
08675,8.876262,-0.947901,4.014549,0.010132,-0.010725,-0.024791,-0.010926,0.046427,0.004124,0.409610,-0.370247,-0.772454,0.088772,-0.009475,0.040125,1.000000,-0.000055,0.000232,0.000021,0.999969,0.001381,0.003048,-0.007174,0.155731,0.350371,-0.821594,0.999878,-0.014339,-0.006115,0.014356,0.999893,0.002718,0.006075,-0.002805,0.999978
08676,8.872787,-0.931347,4.048383,-0.012837,0.013697,-0.015606,-0.002270,0.044833,0.006367,0.413072,-0.370247,-0.764910,0.088737,-0.009310,0.040464,1.000000,-0.000011,0.000224,0.000032,0.999968,0.001380,0.003273,-0.007181,0.155447,0.376175,-0.822347,0.999875,-0.014352,-0.006565,0.014370,0.999893,0.002713,0.006526,-0.002807,0.999975
08677,8.866420,-0.944458,3.999293,0.029046,-0.011064,-0.040339,-0.001892,0.043101,0.007605,0.409901,-0.371632,-0.765603,0.088673,-0.009441,0.039974,1.000000,-0.000009,0.000216,0.000038,0.999967,0.001379,0.003497,-0.007193,0.155110,0.401850,-0.823695,0.999872,-0.014375,-0.007014,0.014395,0.999893,0.002707,0.006974,-0.002808,0.999972
08678,8.826825,-0.909928,4.020533,0.005702,0.028109,-0.070784,0.000886,0.042665,0.009711,0.405516,-0.368707,-0.766009,0.088277,-0.009095,0.040186,1.000000,0.000004,0.000213,0.000049,0.999966,0.001367,0.003716,-0.007177,0.153642,0.426887,-0.821909,0.999869,-0.014344,-0.007451,0.014364,0.999893,0.002681,0.007411,-0.002788,0.999969
08679,8.831235,-0.915447,4.047237,-0.013050,0.029189,-0.055236,0.000930,0.038133,0.005657,0.414564,-0.368624,-0.768012,0.088320,-0.009152,0.040455,1.000000,0.000005,0.000191,0.000028,0.999966,0.001376,0.003910,-0.007169,0.154514,0.449164,-0.820918,0.999867,-0.014327,-0.007839,0.014348,0.999893,0.002697,0.007800,-0.002809,0.999966
08680,8.808160,-0.866650,4.040736,-0.002589,0.075027,-0.083521,0.004779,0.033942,0.006166,0.407669,-0.369733,-0.771563,0.088089,-0.008665,0.040392,1.000000,0.000024,0.000170,0.000031,0.999965,0.001379,0.004082,-0.007139,0.154724,0.468863,-0.817455,0.999865,-0.014266,-0.008183,0.014289,0.999894,0.002700,0.008144,-0.002817,0.999963
08681,8.820707,-0.894111,4.059850,-0.017161,0.052974,-0.061606,-0.005835,0.027242,0.002871,0.408950,-0.367597,-0.770002,0.088213,-0.008939,0.040587,1.000000,-0.000029,0.000136,0.000014,0.999964,0.001371,0.004221,-0.007170,0.153655,0.484761,-0.820943,0.999862,-0.014327,-0.008461,0.014350,0.999893,0.002682,0.008421,-0.002803,0.999961
08682,8.819582,-0.894797,4.062144,-0.017163,0.053306,-0.061608,-0.008566,0.026223,0.006063,0.414063,-0.366725,-0.770199,0.088201,-0.008944,0.040610,1.000000,-0.000043,0.000131,0.000030,0.999964,0.001338,0.004355,-0.007197,0.149736,0.500163,-0.824036,0.999858,-0.014381,-0.008729,0.014404,0.999893,0.002613,0.008691,-0.002739,0.999958
08683,8.796322,-0.904594,4.067924,-0.032120,0.046047,-0.079320,-0.019863,0.017730,-0.001116,0.411095,-0.365698,-0.766420,0.087967,-0.009042,0.040672,1.000000,-0.000099,0.000089,-0.000006,0.999963,0.001305,0.004443,-0.007296,0.145832,0.510185,-0.835445,0.999854,-0.014580,-0.008904,0.014603,0.999890,0.002545,0.008866,-0.002675,0.999957
08684,8.824144,-0.901108,4.088247,-0.035916,0.054830,-0.046062,-0.021189,0.012682,-0.003582,0.408033,-0.367597,-0.771999,0.088244,-0.009008,0.040878,1.000000,-0.000106,0.000063,-0.000018,0.999962,0.001273,0.004500,-0.007394,0.142059,0.516773,-0.846621,0.999850,-0.014775,-0.009019,0.014798,0.999887,0.002479,0.008982,-0.002612,0.999956
08685,8.833095,-0.941058,4.052544,-0.008765,0.007849,-0.048870,-0.026357,0.011833,-0.006553,0.408033,-0.367597,-0.771999,0.088333,-0.009408,0.040521,1.000000,-0.000132,0.000059,-0.000033,0.999961,0.001244,0.004551,-0.007526,0.138610,0.522553,-0.861836,0.999845,-0.015041,-0.009120,0.015063,0.999884,0.002419,0.009083,-0.002556,0.999955
08686,8.838774,-0.946358,4.076436,-0.027566,0.009071,-0.033321,-0.027388,0.011052,-0.009016,0.407704,-0.373769,-0.769162,0.088390,-0.009462,0.040761,1.000000,-0.000137,0.000055,-0.000045,0.999959,0.001221,0.004594,-0.007662,0.135867,0.527514,-0.877416,0.999840,-0.015313,-0.009207,0.015335,0.999880,0.002371,0.009169,-0.002512,0.999955
08687,8.779203,-0.995673,4.082144,-0.068454,-0.036595,-0.080080,-0.024945,0.007813,-0.012206,0.409130,-0.363618,-0.772502,0.087793,-0.009957,0.040819,1.000000,-0.000125,0.000039,-0.000061,0.999958,0.001219,0.004616,-0.007791,0.135579,0.529991,-0.892151,0.999836,-0.015570,-0.009250,0.015592,0.999876,0.002366,0.009212,-0.002510,0.999954
08688,8.793801,-0.964227,4.084990,-0.057621,-0.005504,-0.068742,-0.029349,-0.000318,-0.019425,0.411808,-0.368110,-0.768896,0.087937,-0.009645,0.040851,1.000000,-0.000147,-0.000002,-0.000097,0.999957,0.001225,0.004591,-0.007951,0.136228,0.527232,-0.910554,0.999831,-0.015891,-0.009202,0.015913,0.999871,0.002378,0.009163,-0.002524,0.999955
08689,8.794017,-0.963274,4.084750,-0.057622,-0.005183,-0.068742,-0.022142,0.000507,-0.026161,0.407008,-0.367084,-0.769111,0.087939,-0.009640,0.040848,1.000000,-0.000111,0.000003,-0.000131,0.999956,0.001278,0.004563,-0.008101,0.142194,0.524017,-0.927673,0.999827,-0.016190,-0.009146,0.016213,0.999865,0.002482,0.009104,-0.002629,0.999955
08690,8.772031,-0.971020,4.088238,-0.072627,-0.012420,-0.086452,-0.026196,-0.005563,-0.025441,0.415829,-0.370760,-0.764025,0.087718,-0.009716,0.040886,1.000000,-0.000131,-0.000028,-0.000127,0.999955,0.001311,0.004506,-0.008257,0.146011,0.517532,-0.945550,0.999823,-0.016502,-0.009033,0.016525,0.999860,0.002548,0.008989,-0.002697,0.999956
08691,8.824962,-0.973682,4.072874,-0.038375,-0.020268,-0.044657,-0.021723,-0.005761,-0.028989,0.413283,-0.370760,-0.769573,0.088247,-0.009745,0.040732,1.000000,-0.000109,-0.000029,-0.000145,0.999954,0.001376,0.004447,-0.008405,0.153389,0.510865,-0.962461,0.999819,-0.016797,-0.008916,0.016821,0.999855,0.002677,0.008870,-0.002827,0.999957
08692,8.795546,-0.958828,4.082503,-0.057554,-0.004311,-0.068741,-0.020935,-0.013773,-0.030593,0.409154,-0.365185,-0.765529,0.087951,-0.009597,0.040832,1.000000,-0.000105,-0.000069,-0.000153,0.999953,0.001434,0.004343,-0.008544,0.160097,0.499114,-0.978352,0.999816,-0.017074,-0.008711,0.017099,0.999850,0.002794,0.008662,-0.002943,0.999958
08693,8.774124,-0.965805,4.084979,-0.072507,-0.011641,-0.086450,-0.018858,-0.015263,-0.035012,0.414353,-0.368110,-0.763348,0.087736,-0.009670,0.040857,1.000000,-0.000094,-0.000076,-0.000175,0.999952,0.001519,0.004230,-0.008687,0.169896,0.486255,-0.994741,0.999813,-0.017360,-0.008487,0.017386,0.999844,0.002965,0.008434,-0.003112,0.999960
08694,8.775289,-0.963579,4.083003,-0.072506,-0.011312,-0.086449,-0.017676,-0.025753,-0.032743,0.413044,-0.369137,-0.776447,0.087746,-0.009647,0.040842,1.000000,-0.000088,-0.000129,-0.000164,0.999952,0.001581,0.004066,-0.008809,0.177037,0.467542,-1.008790,0.999812,-0.017605,-0.008160,0.017631,0.999840,0.003090,0.008104,-0.003233,0.999962
08695,8.764632,-0.951476,4.033985,-0.034820,-0.012845,-0.117547,-0.016880,-0.033760,-0.034345,0.416260,-0.364588,-0.766641,0.087638,-0.009526,0.040355,1.000000,-0.000084,-0.000169,-0.000172,0.999951,0.001646,0.003866,-0.008939,0.184694,0.444649,-1.023604,0.999810,-0.017864,-0.007761,0.017889,0.999835,0.003223,0.007702,-0.003362,0.999965
08696,8.799424,-0.932751,4.102477,-0.080394,0.020923,-0.059570,-0.019117,-0.046319,-0.035407,0.409189,-0.369220,-0.763128,0.087983,-0.009339,0.041046,1.000000,-0.000096,-0.000232,-0.000177,0.999951,0.001694,0.003599,-0.009063,0.190347,0.414127,-1.037917,0.999810,-0.018114,-0.007228,0.018138,0.999830,0.003322,0.007166,-0.003453,0.999968
08697,8.810079,-0.894498,4.077812,-0.050634,0.051029,-0.063790,-0.014563,-0.049460,-0.028382,0.409334,-0.361206,-0.768030,0.088089,-0.008955,0.040801,1.000000,-0.000073,-0.000247,-0.000142,0.999951,0.001721,0.003332,-0.009161,0.193761,0.383556,-1.049149,0.999810,-0.018310,-0.006694,0.018333,0.999826,0.003382,0.006631,-0.003504,0.999972
08698,8.870908,-0.901783,4.081582,-0.035249,0.044206,-0.006447,-0.025548,-0.050617,-0.026183,0.411989,-0.364132,-0.771396,0.088698,-0.009024,0.040839,1.000000,-0.000128,-0.000253,-0.000131,0.999951,0.001710,0.003055,-0.009294,0.192694,0.351879,-1.064436,0.999809,-0.018576,-0.006141,0.018597,0.999821,0.003363,0.006078,-0.003477,0.999975
08699,8.895020,-0.949705,4.086213,-0.045648,-0.000918,0.021863,-0.028942,-0.053416,-0.026857,0.410861,-0.363618,-0.768730,0.088938,-0.009503,0.040887,1.000000,-0.000145,-0.000267,-0.000134,0.999950,0.001690,0.002766,-0.009454,0.190615,0.318824,-1.082881,0.999806,-0.018898,-0.005564,0.018917,0.999816,0.003327,0.005501,-0.003431,0.999979
08700,8.976588,-0.931295,4.115529,-0.038235,0.023926,0.106082,-0.029991,-0.050398,-0.022602,0.412121,-0.366211,-0.769308,0.089754,-0.009317,0.041179,1.000000,-0.000150,-0.000252,-0.000113,0.999949,0.001653,0.002495,-0.009600,0.186708,0.287752,-1.099657,0.999803,-0.019191,-0.005022,0.019208,0.999810,0.003259,0.004959,-0.003354,0.999982
08701,8.996346,-0.933816,4.054270,0.018644,0.006829,0.099071,-0.033603,-0.037412,-0.019013,0.412098,-0.364645,-0.776281,0.089955,-0.009340,0.040561,1.000000,-0.000168,-0.000187,-0.000095,0.999948,0.001610,0.002297,-0.009774,0.181888,0.264953,-1.119580,0.999798,-0.019539,-0.004624,0.019554,0.999804,0.003174,0.004561,-0.003264,0.999984
08702,8.977170,-0.959601,4.025153,0.026620,-0.024492,0.072199,-0.029279,-0.027073,-0.019725,0.409975,-0.368110,-0.772890,0.089765,-0.009599,0.040265,1.000000,-0.000146,-0.000135,-0.000099,0.999947,0.001588,0.002142,-0.009922,0.179545,0.247260,-1.136572,0.999794,-0.019835,-0.004315,0.019849,0.999798,0.003134,0.004252,-0.003219,0.999986
08703,8.897447,-0.959463,4.018502,-0.003733,-0.024608,-0.002852,-0.028317,-0.021031,-0.015839,0.413014,-0.364645,-0.774284,0.088969,-0.009596,0.040196,1.000000,-0.000142,-0.000105,-0.000079,0.999946,0.001559,0.002023,-0.010073,0.176319,0.233662,-1.153893,0.999789,-0.020138,-0.004078,0.020150,0.999792,0.003077,0.004015,-0.003159,0.999987
08704,8.886120,-0.949284,3.970045,0.033871,-0.026060,-0.033951,-0.031714,-0.023836,-0.016515,0.406978,-0.362592,-0.766948,0.088856,-0.009494,0.039713,1.000000,-0.000159,-0.000119,-0.000083,0.999945,0.001522,0.001889,-0.010227,0.172169,0.218203,-1.171580,0.999784,-0.020446,-0.003808,0.020458,0.999786,0.003005,0.003746,-0.003082,0.999988
08705,8.872657,-0.979935,3.965080,0.023110,-0.056505,-0.045270,-0.023215,-0.017949,-0.020800,0.406272,-0.363105,-0.773609,0.088722,-0.009804,0.039660,1.000000,-0.000116,-0.000090,-0.000104,0.999944,0.001528,0.001780,-0.010365,0.173006,0.205810,-1.187460,0.999779,-0.020723,-0.003592,0.020734,0.999780,0.003019,0.003529,-0.003093,0.999989
08706,8.886035,-0.989068,4.009272,-0.014487,-0.054383,-0.014168,-0.022458,-0.021430,-0.018345,0.411072,-0.364132,-0.773393,0.088855,-0.009894,0.040103,1.000000,-0.000112,-0.000107,-0.000092,0.999943,0.001521,0.001655,-0.010482,0.172310,0.191432,-1.200883,0.999775,-0.020958,-0.003341,0.020968,0.999776,0.003007,0.003277,-0.003077,0.999990
08707,8.963331,-0.999620,3.958408,0.057696,-0.078568,0.036172,-0.014263,-0.019058,-0.025280,0.408237,-0.365185,-0.767526,0.089628,-0.010005,0.039593,1.000000,-0.000071,-0.000095,-0.000126,0.999942,0.001564,0.001532,-0.010587,0.177308,0.177490,-1.212913,0.999771,-0.021168,-0.003098,0.021177,0.999771,0.003095,0.003032,-0.003159,0.999990
08708,8.992765,-0.993641,3.975783,0.053904,-0.069754,0.069429,-0.008115,-0.015952,-0.025150,0.409130,-0.363618,-0.772502,0.089923,-0.009946,0.039765,1.000000,-0.000041,-0.000080,-0.000126,0.999941,0.001623,0.001425,-0.010655,0.184176,0.165238,-1.220749,0.999769,-0.021304,-0.002884,0.021314,0.999768,0.003214,0.002815,-0.003275,0.999991
08709,8.977903,-0.947581,3.988214,0.045603,-0.023079,0.056654,-0.005068,-0.012142,-0.023054,0.403305,-0.362078,-0.769829,0.089776,-0.009485,0.039888,1.000000,-0.000025,-0.000061,-0.000115,0.999940,0.001685,0.001341,-0.010715,0.191418,0.155714,-1.227671,0.999767,-0.021425,-0.002718,0.021434,0.999765,0.003341,0.002646,-0.003398,0.999991
08710,8.926123,-0.942312,4.002169,0.011417,-0.014717,0.014857,-0.000944,-0.009050,-0.013221,0.404565,-0.364671,-0.770407,0.089259,-0.009429,0.040026,1.000000,-0.000005,-0.000045,-0.000066,0.999940,0.001714,0.001281,-0.010730,0.194818,0.148885,-1.229370,0.999766,-0.021455,-0.002599,0.021464,0.999764,0.003400,0.002525,-0.003455,0.999991
08711,8.890348,-0.923677,3.988945,0.010992,0.000315,-0.024786,-0.002884,-0.014319,-0.004937,0.408448,-0.365698,-0.772189,0.088900,-0.009238,0.039896,1.000000,-0.000014,-0.000072,-0.000025,0.999940,0.001697,0.001203,-0.010735,0.193016,0.139973,-1.229934,0.999767,-0.021465,-0.002443,0.021473,0.999764,0.003369,0.002370,-0.003420,0.999991
08712,8.906854,-0.967429,3.973399,0.019358,-0.045728,-0.012004,0.001432,-0.025505,-0.004651,0.408003,-0.363105,-0.769836,0.089063,-0.009677,0.039745,1.000000,0.000007,-0.000128,-0.000023,0.999941,0.001675,0.001074,-0.010714,0.190652,0.125110,-1.227513,0.999768,-0.021422,-0.002184,0.021430,0.999765,0.003327,0.002112,-0.003374,0.999992
08713,8.930041,-0.958125,3.967332,0.034410,-0.037838,0.005701,0.006564,-0.020896,0.004997,0.405982,-0.366570,-0.766223,0.089297,-0.009580,0.039682,1.000000,0.000033,-0.000104,0.000025,0.999941,0.001628,0.000981,-0.010660,0.185380,0.114367,-1.221412,0.999771,-0.021316,-0.001996,0.021322,0.999767,0.003235,0.001927,-0.003277,0.999993
08714,8.915215,-0.914020,3.979215,0.026048,0.008875,-0.007083,0.007274,-0.022890,0.002170,0.403305,-0.362078,-0.769829,0.089148,-0.009141,0.039802,1.000000,0.000036,-0.000114,0.000011,0.999942,0.001591,0.000872,-0.010600,0.181284,0.101860,-1.214500,0.999774,-0.021195,-0.001778,0.021201,0.999770,0.003164,0.001710,-0.003201,0.999993
08715,8.968494,-0.917750,3.962174,0.060255,0.001135,0.034715,0.009040,-0.024855,0.004440,0.403966,-0.364728,-0.772282,0.089680,-0.009177,0.039632,1.000000,0.000045,-0.000124,0.000022,0.999943,0.001549,0.000757,-0.010527,0.176586,0.088652,-1.206199,0.999777,-0.021051,-0.001547,0.021055,0.999774,0.003082,0.001482,-0.003114,0.999994
08716,8.947378,-0.868960,3.951022,0.070690,0.046953,0.006378,0.006894,-0.018123,0.010287,0.401989,-0.360179,-0.773792,0.089471,-0.008686,0.039518,1.000000,0.000034,-0.000091,0.000051,0.999944,0.001481,0.000682,-0.010454,0.168869,0.079884,-1.197852,0.999780,-0.020905,-0.001394,0.020909,0.999777,0.002947,0.001332,-0.002976,0.999995
08717,8.970186,-0.860391,3.945605,0.085626,0.054907,0.024079,0.003011,-0.013190,0.007166,0.406687,-0.361206,-0.773799,0.089700,-0.008601,0.039462,1.000000,0.000015,-0.000066,0.000036,0.999945,0.001422,0.000623,-0.010410,0.162250,0.073055,-1.192798,0.999782,-0.020817,-0.001275,0.020820,0.999779,0.002832,0.001216,-0.002858,0.999995
08718,8.992750,-0.851871,3.940728,0.100630,0.062836,0.041779,-0.004705,-0.004816,0.006203,0.401843,-0.368193,-0.768890,0.089927,-0.008515,0.039410,1.000000,-0.000024,-0.000024,0.000031,0.999945,0.001363,0.000607,-0.010404,0.155437,0.071177,-1.192161,0.999783,-0.020806,-0.001242,0.020809,0.999780,0.002713,0.001186,-0.002738,0.999996
08719,8.998955,-0.857776,3.963709,0.081818,0.064027,0.057326,-0.012773,0.004557,0.006654,0.404361,-0.367084,-0.774880,0.089991,-0.008572,0.039636,1.000000,-0.000064,0.000023,0.000033,0.999944,0.001297,0.000637,-0.010441,0.147860,0.074526,-1.196422,0.999781,-0.020880,-0.001301,0.020883,0.999779,0.002581,0.001247,-0.002607,0.999996
08720,8.977847,-0.884958,3.938527,0.089803,0.032693,0.030470,-0.023311,0.014872,-0.001672,0.406978,-0.362592,-0.766948,0.089781,-0.008846,0.039380,1.000000,-0.000117,0.000074,-0.000008,0.999943,0.001255,0.000708,-0.010546,0.142966,0.082595,-1.208378,0.999777,-0.021089,-0.001442,0.021092,0.999774,0.002495,0.001389,-0.002525,0.999996
08721,8.932709,-0.903849,3.947872,0.059820,0.017787,-0.004933,-0.025100,0.017587,-0.006577,0.407634,-0.365698,-0.773965,0.089330,-0.009036,0.039472,1.000000,-0.000126,0.000088,-0.000033,0.999942,0.001237,0.000787,-0.010674,0.140790,0.091648,-1.223064,0.999771,-0.021345,-0.001600,0.021349,0.999769,0.002457,0.001547,-0.002491,0.999996
08722,8.977756,-0.961340,3.924591,0.087384,-0.043839,0.031963,-0.025830,0.020331,-0.006385,0.408694,-0.370247,-0.774451,0.089781,-0.009611,0.039238,1.000000,-0.000129,0.000102,-0.000032,0.999941,0.001217,0.000878,-0.010802,0.138337,0.102132,-1.237726,0.999765,-0.021601,-0.001783,0.021605,0.999764,0.002414,0.001730,-0.002452,0.999995
08723,9.011823,-0.962428,3.968187,0.064818,-0.034211,0.080763,-0.029275,0.019018,-0.012337,0.408840,-0.362233,-0.779353,0.090121,-0.009624,0.039675,1.000000,-0.000146,0.000095,-0.000062,0.999939,0.001219,0.000958,-0.010964,0.138469,0.111279,-1.256241,0.999758,-0.021924,-0.001942,0.021928,0.999757,0.002417,0.001889,-0.002459,0.999995
08724,8.938003,-0.984955,3.958973,0.038617,-0.057554,0.012113,-0.022831,0.025635,-0.009563,0.407189,-0.363105,-0.771611,0.089385,-0.009849,0.039579,1.000000,-0.000114,0.000128,-0.000048,0.999937,0.001225,0.001071,-0.011087,0.138983,0.124291,-1.270370,0.999752,-0.022170,-0.002169,0.022176,0.999751,0.002426,0.002115,-0.002473,0.999995
08725,8.907061,-0.972049,3.971806,0.019425,-0.041602,-0.011985,-0.018972,0.021448,-0.009082,0.410826,-0.359583,-0.771132,0.089074,-0.009721,0.039709,1.000000,-0.000095,0.000107,-0.000045,0.999936,0.001231,0.001164,-0.011200,0.139513,0.134990,-1.283339,0.999746,-0.022397,-0.002356,0.022402,0.999746,0.002435,0.002301,-0.002487,0.999994
08726,8.885635,-0.998188,3.947585,0.027416,-0.072945,-0.038832,-0.012072,0.021065,-0.006508,0.407189,-0.363105,-0.771611,0.088860,-0.009982,0.039467,1.000000,-0.000060,0.000105,-0.000033,0.999935,0.001240,0.001259,-0.011267,0.140505,0.145850,-1.290906,0.999743,-0.022529,-0.002546,0.022535,0.999743,0.002452,0.002490,-0.002509,0.999994
08727,8.884977,-0.998079,3.949094,0.027468,-0.072599,-0.038829,-0.007838,0.015131,-0.004806,0.409910,-0.359583,-0.773129,0.088853,-0.009981,0.039485,1.000000,-0.000039,0.000076,-0.000024,0.999934,0.001244,0.001329,-0.011318,0.140858,0.153910,-1.296819,0.999740,-0.022632,-0.002686,0.022638,0.999741,0.002458,0.002630,-0.002519,0.999993
08728,8.846445,-0.963055,3.968255,0.004094,-0.033494,-0.069332,-0.001295,0.015743,-0.000817,0.408629,-0.361719,-0.774690,0.088468,-0.009631,0.039676,1.000000,-0.000006,0.000079,-0.000004,0.999934,0.001246,0.001404,-0.011321,0.140914,0.162549,-1.297159,0.999740,-0.022638,-0.002837,0.022645,0.999741,0.002459,0.002781,-0.002523,0.999993
08729,8.882184,-0.981164,3.981669,0.004503,-0.047795,-0.029679,0.003259,0.012572,0.006172,0.405277,-0.367084,-0.772883,0.088825,-0.009810,0.039811,1.000000,0.000016,0.000063,0.000031,0.999934,0.001220,0.001474,-0.011300,0.137833,0.170439,-1.294766,0.999740,-0.022596,-0.002975,0.022603,0.999742,0.002406,0.002920,-0.002472,0.999993
08730,8.837567,-0.941369,3.977383,-0.000072,-0.009592,-0.075735,-0.000835,0.008744,-0.001020,0.410826,-0.359583,-0.771132,0.088377,-0.009414,0.039770,1.000000,-0.000004,0.000044,-0.000005,0.999934,0.001215,0.001515,-0.011299,0.137251,0.175151,-1.294533,0.999740,-0.022592,-0.003057,0.022599,0.999742,0.002395,0.003002,-0.002464,0.999992
08731,8.822711,-0.972535,3.975441,-0.010869,-0.040066,-0.087027,0.007720,0.012390,0.002608,0.411487,-0.362233,-0.773584,0.088230,-0.009726,0.039749,1.000000,0.000039,0.000062,0.000013,0.999935,0.001217,0.001578,-0.011259,0.137469,0.182434,-1.289975,0.999741,-0.022512,-0.003184,0.022520,0.999744,0.002399,0.003129,-0.002470,0.999992
08732,8.814515,-0.950190,3.983200,-0.015056,-0.016551,-0.093432,0.008509,0.005141,-0.001649,0.404331,-0.362592,-0.772718,0.088146,-0.009504,0.039829,1.000000,0.000043,0.000026,-0.000008,0.999935,0.001231,0.001601,-0.011214,0.139016,0.185042,-1.284826,0.999743,-0.022422,-0.003230,0.022430,0.999745,0.002426,0.003174,-0.002498,0.999992
08733,8.833060,-0.964585,4.052751,-0.071463,-0.013510,-0.046784,0.009950,0.000405,-0.004672,0.406506,-0.365185,-0.771298,0.088330,-0.009650,0.040527,1.000000,0.000050,0.000002,-0.000023,0.999936,0.001255,0.001597,-0.011174,0.141799,0.184551,-1.280246,0.999745,-0.022343,-0.003221,0.022351,0.999747,0.002475,0.003165,-0.002546,0.999992
08734,8.871523,-0.940096,4.021656,-0.022657,0.001130,-0.026937,0.016881,-0.003741,-0.008800,0.407814,-0.361719,-0.776465,0.088714,-0.009408,0.040217,1.000000,0.000084,-0.000019,-0.000044,0.999936,0.001308,0.001567,-0.011101,0.147896,0.181245,-1.271917,0.999749,-0.022197,-0.003163,0.022205,0.999750,0.002581,0.003105,-0.002651,0.999992
08735,8.886181,-0.907517,4.024345,-0.011876,0.032252,-0.015649,0.016905,-0.004487,-0.006160,0.404331,-0.362592,-0.772718,0.088861,-0.009081,0.040245,1.000000,0.000085,-0.000022,-0.000031,0.999937,0.001348,0.001536,-0.011029,0.152573,0.177693,-1.263590,0.999752,-0.022052,-0.003101,0.022060,0.999753,0.002663,0.003042,-0.002731,0.999992
08736,8.878685,-0.884238,4.030736,-0.016066,0.055768,-0.022059,0.014242,-0.010037,-0.007031,0.409699,-0.359070,-0.768466,0.088785,-0.008848,0.040311,1.000000,0.000071,-0.000050,-0.000035,0.999938,0.001381,0.001478,-0.010961,0.156375,0.171118,-1.255883,0.999755,-0.021917,-0.002987,0.021926,0.999756,0.002729,0.002926,-0.002794,0.999992
08737,8.806274,-0.905463,4.018648,-0.042259,0.032412,-0.090701,0.017447,-0.016740,-0.007784,0.405481,-0.364671,-0.768410,0.088059,-0.009062,0.040193,1.000000,0.000087,-0.000084,-0.000039,0.999939,0.001414,0.001387,-0.010885,0.160347,0.160727,-1.247169,0.999759,-0.021765,-0.002805,0.021773,0.999759,0.002799,0.002744,-0.002859,0.999992
08738,8.769180,-0.869459,4.034781,-0.065642,0.071499,-0.121221,0.013471,-0.024302,-0.001778,0.406506,-0.365185,-0.771298,0.087687,-0.008698,0.040358,1.000000,0.000067,-0.000122,-0.000009,0.999940,0.001406,0.001267,-0.010804,0.159571,0.146902,-1.237868,0.999763,-0.021603,-0.002564,0.021610,0.999763,0.002785,0.002503,-0.002840,0.999993
08739,8.903645,-0.872008,4.021438,-0.001049,0.064344,-0.004368,0.013660,-0.035556,-0.001982,0.403335,-0.366570,-0.771992,0.089029,-0.008724,0.040230,1.000000,0.000068,-0.000178,-0.000010,0.999941,0.001390,0.001092,-0.010719,0.157947,0.126820,-1.228173,0.999768,-0.021434,-0.002213,0.021440,0.999766,0.002757,0.002154,-0.002804,0.999994
08740,8.963648,-0.880195,4.026567,0.014345,0.057617,0.052983,0.008825,-0.033627,0.000362,0.409130,-0.363618,-0.772502,0.089630,-0.008804,0.040280,1.000000,0.000044,-0.000168,0.000002,0.999942,0.001352,0.000929,-0.010650,0.153834,0.108091,-1.220285,0.999771,-0.021296,-0.001887,0.021301,0.999769,0.002685,0.001829,-0.002724,0.999995
08741,8.926908,-0.844862,4.041788,-0.009041,0.096661,0.022459,0.012497,-0.026556,0.001050,0.407603,-0.361206,-0.771802,0.089264,-0.008451,0.040429,1.000000,0.000062,-0.000133,0.000005,0.999943,0.001330,0.000801,-0.010571,0.151373,0.093394,-1.211240,0.999775,-0.021139,-0.001630,0.021143,0.999773,0.002642,0.001574,-0.002676,0.999995
08742,8.831498,-0.801185,4.049026,-0.047822,0.142805,-0.065422,0.002278,-0.031218,0.005722,0.404361,-0.367084,-0.774880,0.088309,-0.008010,0.040504,1.000000,0.000011,-0.000156,0.000029,0.999944,0.001257,0.000656,-0.010522,0.143267,0.076732,-1.205643,0.999778,-0.021041,-0.001339,0.021044,0.999775,0.002500,0.001286,-0.002528,0.999996
08743,8.894668,-0.844792,3.993959,0.013559,0.087904,-0.026341,-0.002341,-0.041287,0.010506,0.404150,-0.366570,-0.770217,0.088939,-0.008443,0.039958,1.000000,-0.000012,-0.000206,0.000053,0.999944,0.001144,0.000469,-0.010486,0.130504,0.055082,-1.201514,0.999780,-0.020969,-0.000961,0.020971,0.999777,0.002278,0.000913,-0.002297,0.999997
08744,8.896182,-0.846101,3.990307,0.013559,0.088240,-0.026344,-0.009919,-0.039652,0.013410,0.403516,-0.362592,-0.774493,0.088954,-0.008453,0.039921,1.000000,-0.000050,-0.000198,0.000067,0.999945,0.001003,0.000293,-0.010472,0.114558,0.034761,-1.200012,0.999780,-0.020943,-0.000607,0.020944,0.999779,0.001999,0.000565,-0.002012,0.999998
08745,8.934040,-0.865657,3.998689,0.013934,0.073864,0.013314,-0.016435,-0.041006,0.012073,0.406687,-0.361206,-0.773799,0.089333,-0.008648,0.040006,1.000000,-0.000082,-0.000205,0.000060,0.999945,0.000855,0.000108,-0.010493,0.097837,0.013401,-1.202390,0.999780,-0.020984,-0.000234,0.020984,0.999778,0.001708,0.000198,-0.001712,0.999999
08746,8.930491,-0.937816,3.955152,0.030326,-0.003851,-0.000681,-0.021945,-0.040842,0.010554,0.405692,-0.365185,-0.773074,0.089297,-0.009369,0.039571,1.000000,-0.000110,-0.000204,0.000053,0.999944,0.000700,-0.000077,-0.010539,0.080317,-0.007953,-1.207737,0.999778,-0.021077,0.000139,0.021077,0.999777,0.001402,-0.000168,-0.001399,0.999999
08747,8.938124,-0.944439,3.974791,0.011562,-0.002635,0.014868,-0.017297,-0.031514,0.008412,0.403516,-0.362592,-0.774493,0.089375,-0.009437,0.039763,1.000000,-0.000086,-0.000158,0.000042,0.999944,0.000576,-0.000217,-0.010582,0.066255,-0.024197,-1.212677,0.999776,-0.021164,0.000422,0.021163,0.999775,0.001156,-0.000447,-0.001147,0.999999
08748,8.954887,-0.989815,3.958074,0.019959,-0.048655,0.027705,-0.020476,-0.028571,0.002469,0.406272,-0.363105,-0.773609,0.089543,-0.009893,0.039595,1.000000,-0.000102,-0.000143,0.000012,0.999943,0.000473,-0.000352,-0.010644,0.054677,-0.039798,-1.219807,0.999773,-0.021288,0.000695,0.021287,0.999773,0.000954,-0.000715,-0.000939,0.999999
08749,8.978101,-0.981465,3.951608,0.034975,-0.040723,0.045400,-0.012707,-0.020697,0.000988,0.400047,-0.359666,-0.772901,0.089777,-0.009812,0.039526,1.000000,-0.000064,-0.000103,0.000005,0.999943,0.000404,-0.000451,-0.010685,0.046790,-0.051135,-1.224475,0.999771,-0.021369,0.000892,0.021369,0.999771,0.000817,-0.000910,-0.000797,0.999999
08750,8.986683,-1.003878,3.942825,0.039177,-0.063562,0.051822,-0.010374,-0.017915,-0.003435,0.400606,-0.362316,-0.775575,0.089863,-0.010038,0.039437,1.000000,-0.000052,-0.000090,-0.000017,0.999942,0.000360,-0.000541,-0.010719,0.041912,-0.061595,-1.228302,0.999770,-0.021436,0.001075,0.021435,0.999770,0.000731,-0.001090,-0.000708,0.999999
08751,8.960178,-1.025072,3.892613,0.065903,-0.095809,0.009455,-0.000187,-0.009501,-0.001424,0.402054,-0.368707,-0.773553,0.089600,-0.010251,0.038930,1.000000,-0.000001,-0.000048,-0.000007,0.999942,0.000337,-0.000593,-0.010706,0.039400,-0.067572,-1.226854,0.999770,-0.021411,0.001179,0.021410,0.999771,0.000688,-0.001194,-0.000662,0.999999
08752,8.965382,-1.012793,3.944821,0.024108,-0.070490,0.034134,-0.000217,-0.008755,-0.004064,0.405873,-0.361206,-0.775574,0.089652,-0.010130,0.039452,1.000000,-0.000001,-0.000044,-0.000020,0.999943,0.000328,-0.000641,-0.010699,0.038377,-0.073016,-1.226044,0.999770,-0.021397,0.001274,0.021396,0.999771,0.000670,-0.001288,-0.000642,0.999999
08753,8.943802,-0.963300,3.934948,0.034519,-0.024774,0.005742,0.011851,-0.008303,0.001430,0.403931,-0.360693,-0.774683,0.089436,-0.009635,0.039353,1.000000,0.000059,-0.000042,0.000007,0.999943,0.000324,-0.000679,-0.010630,0.037928,-0.077443,-1.218145,0.999773,-0.021259,0.001352,0.021258,0.999774,0.000662,-0.001365,-0.000633,0.999999
08754,8.974178,-0.976102,3.923207,0.053720,-0.039992,0.029859,0.011912,-0.009794,0.006711,0.401574,-0.362078,-0.773602,0.089740,-0.009760,0.039236,1.000000,0.000060,-0.000049,0.000034,0.999944,0.000291,-0.000719,-0.010545,0.034208,-0.082029,-1.208457,0.999777,-0.021090,0.001432,0.021089,0.999777,0.000597,-0.001444,-0.000567,0.999999
08755,8.960314,-0.949007,3.906510,0.068309,-0.017379,0.007888,0.015278,-0.006243,0.004741,0.400623,-0.358043,-0.778000,0.089602,-0.009491,0.039067,1.000000,0.000076,-0.000031,0.000024,0.999945,0.000278,-0.000745,-0.010456,0.032720,-0.084992,-1.198262,0.999780,-0.020912,0.001483,0.020911,0.999781,0.000571,-0.001495,-0.000540,0.999999
08756,8.959059,-0.931872,3.935985,0.045311,0.007037,0.017012,0.019823,-0.008660,0.009088,0.407365,-0.359583,-0.778676,0.089589,-0.009319,0.039363,1.000000,0.000099,-0.000043,0.000045,0.999946,0.000252,-0.000776,-0.010332,0.029817,-0.088630,-1.183965,0.999785,-0.020663,0.001547,0.020662,0.999786,0.000520,-0.001557,-0.000488,0.999999
08757,8.975252,-0.917988,3.908162,0.079079,0.014195,0.019155,0.019886,-0.010147,0.014370,0.402354,-0.358043,-0.774228,0.089751,-0.009177,0.039085,1.000000,0.000099,-0.000051,0.000072,0.999948,0.000197,-0.000810,-0.010207,0.023492,-0.092597,-1.169691,0.999790,-0.020414,0.001616,0.020413,0.999792,0.000410,-0.001624,-0.000377,0.999999
08758,9.003958,-0.914363,3.926669,0.075278,0.023062,0.052395,0.019423,-0.003156,0.014563,0.403014,-0.360693,-0.776680,0.090040,-0.009141,0.039267,1.000000,0.000097,-0.000016,0.000073,0.999949,0.000152,-0.000808,-0.010076,0.018388,-0.092434,-1.154635,0.999796,-0.020151,0.001613,0.020150,0.999797,0.000321,-0.001619,-0.000288,0.999999
08759,8.966026,-0.879838,3.944730,0.051859,0.062184,0.021847,0.015532,0.001773,0.011445,0.401108,-0.364215,-0.773388,0.089661,-0.008796,0.039446,1.000000,0.000078,0.000009,0.000057,0.999950,0.000116,-0.000787,-0.009979,0.014197,-0.090074,-1.143568,0.999800,-0.019958,0.001572,0.019957,0.999801,0.000248,-0.001577,-0.000216,0.999999
08760,8.943600,-0.889551,3.949110,0.036863,0.054897,0.004154,0.018340,0.000581,0.016169,0.403931,-0.360693,-0.774683,0.089437,-0.008892,0.039490,1.000000,0.000092,0.000003,0.000081,0.999951,0.000066,-0.000765,-0.009851,0.008478,-0.087611,-1.128912,0.999805,-0.019702,0.001529,0.019702,0.999806,0.000148,-0.001532,-0.000118,0.999999
08761,8.967027,-0.898329,3.915514,0.074862,0.038761,0.012724,0.006839,0.007886,0.013317,0.404331,-0.362592,-0.772718,0.089672,-0.008979,0.039151,1.000000,0.000034,0.000039,0.000067,0.999952,0.000015,-0.000711,-0.009790,0.002482,-0.081474,-1.121889,0.999807,-0.019579,0.001422,0.019579,0.999808,0.000043,-0.001423,-0.000015,0.999999
08762,8.930237,-0.881282,3.904276,0.074466,0.053741,-0.026946,0.004064,0.008337,0.011236,0.405838,-0.357171,-0.777975,0.089304,-0.008809,0.039039,1.000000,0.000020,0.000042,0.000056,0.999952,-0.000034,-0.000657,-0.009741,-0.003193,-0.075348,-1.116246,0.999809,-0.019481,0.001315,0.019481,0.999810,-0.000056,-0.001314,0.000081,0.999999
08763,8.897891,-0.910455,3.959442,0.006906,0.040674,-0.031232,0.005101,0.009110,0.013692,0.404541,-0.363105,-0.777381,0.088981,-0.009099,0.039590,1.000000,0.000026,0.000046,0.000068,0.999953,-0.000093,-0.000595,-0.009695,-0.010037,-0.068271,-1.110987,0.999811,-0.019389,0.001192,0.019389,0.999812,-0.000175,-0.001188,0.000198,0.999999
08764,8.891094,-0.906467,3.937252,0.025709,0.040104,-0.046782,0.003714,0.009336,0.012652,0.404331,-0.362592,-0.772718,0.088913,-0.009060,0.039368,1.000000,0.000019,0.000047,0.000063,0.999953,-0.000148,-0.000534,-0.009645,-0.016389,-0.061397,-1.105255,0.999813,-0.019289,0.001072,0.019289,0.999814,-0.000286,-0.001066,0.000307,0.999999
08765,8.910979,-0.939594,3.977353,-0.007663,0.019053,-0.009254,0.004752,0.010109,0.015108,0.399611,-0.366294,-0.774850,0.089113,-0.009390,0.039769,1.000000,0.000024,0.000051,0.000076,0.999954,-0.000210,-0.000466,-0.009594,-0.023509,-0.053620,-1.099406,0.999815,-0.019187,0.000936,0.019187,0.999816,-0.000410,-0.000928,0.000428,0.999999
08766,8.904213,-0.935790,3.955051,0.011140,0.018484,-0.024803,0.005867,0.005633,0.016149,0.405873,-0.361206,-0.775574,0.089044,-0.009352,0.039548,1.000000,0.000029,0.000028,0.000081,0.999955,-0.000279,-0.000419,-0.009525,-0.031569,-0.048339,-1.091535,0.999818,-0.019050,0.000844,0.019050,0.999818,-0.000551,-0.000833,0.000567,0.999999
08767,8.917833,-0.964301,3.971884,-0.003470,-0.003490,-0.002822,0.006203,0.008403,0.021435,0.404956,-0.361206,-0.777571,0.089181,-0.009635,0.039715,1.000000,0.000031,0.000042,0.000107,0.999955,-0.000367,-0.000353,-0.009450,-0.041638,-0.040891,-1.082877,0.999821,-0.018899,0.000714,0.018899,0.999821,-0.000727,-0.000700,0.000740,0.999999
08768,8.895103,-0.974969,3.976652,-0.018463,-0.010787,-0.020511,0.005900,0.004894,0.018793,0.401553,-0.366808,-0.775741,0.088953,-0.009743,0.039764,1.000000,0.000030,0.000024,0.000094,0.999956,-0.000449,-0.000307,-0.009375,-0.051117,-0.035664,-1.074334,0.999824,-0.018750,0.000622,0.018750,0.999824,-0.000892,-0.000606,0.000904,0.999999
08769,8.850309,-0.994370,3.985149,-0.048473,-0.025756,-0.055888,0.014593,-0.001222,0.016929,0.399131,-0.359666,-0.774898,0.088504,-0.009939,0.039851,1.000000,0.000073,-0.000006,0.000085,0.999957,-0.000510,-0.000294,-0.009267,-0.058106,-0.034210,-1.061928,0.999828,-0.018533,0.000597,0.018534,0.999828,-0.001014,-0.000578,0.001025,0.999999
08770,8.848845,-0.978205,4.014875,-0.071477,-0.001345,-0.046775,0.013314,-0.006987,0.017116,0.402565,-0.358556,-0.778891,0.088488,-0.009777,0.040151,1.000000,0.000067,-0.000035,0.000086,0.999958,-0.000582,-0.000307,-0.009156,-0.066412,-0.035819,-1.049245,0.999832,-0.018312,0.000625,0.018312,0.999832,-0.001159,-0.000604,0.001170,0.999999
08771,8.902741,-1.000053,3.969286,-0.014347,-0.032918,-0.014073,0.016411,-0.007693,0.015144,0.403966,-0.364728,-0.772282,0.089027,-0.009997,0.039695,1.000000,0.000082,-0.000038,0.000076,0.999959,-0.000644,-0.000331,-0.009041,-0.073473,-0.038548,-1.035958,0.999836,-0.018080,0.000673,0.018081,0.999836,-0.001282,-0.000649,0.001294,0.999999
08772,8.895337,-0.978528,3.975254,-0.018551,-0.009411,-0.020509,0.020346,-0.017129,0.014214,0.405488,-0.367597,-0.777546,0.088951,-0.009783,0.039759,1.000000,0.000102,-0.000086,0.000071,0.999960,-0.000701,-0.000397,-0.008899,-0.079868,-0.046189,-1.019713,0.999841,-0.017796,0.000806,0.017798,0.999841,-0.001394,-0.000781,0.001408,0.999999
08773,8.879877,-0.993040,4.001187,-0.052301,-0.015912,-0.022649,0.022743,-0.015836,0.015072,0.399131,-0.359666,-0.774898,0.088796,-0.009928,0.040018,1.000000,0.000114,-0.000079,0.000075,0.999961,-0.000749,-0.000454,-0.008751,-0.085362,-0.052722,-1.002752,0.999846,-0.017500,0.000920,0.017502,0.999846,-0.001490,-0.000894,0.001506,0.999998
08774,8.904150,-1.001366,3.965794,-0.014294,-0.032016,-0.014069,0.027962,-0.019503,0.013958,0.404745,-0.360693,-0.772908,0.089038,-0.010013,0.039665,1.000000,0.000140,-0.000098,0.000070,0.999963,-0.000791,-0.000532,-0.008574,-0.090104,-0.061709,-0.982464,0.999852,-0.017146,0.001077,0.017148,0.999852,-0.001573,-0.001050,0.001591,0.999998
08775,8.890815,-0.974317,3.948001,0.000302,-0.009401,-0.036056,0.027658,-0.023011,0.011321,0.401785,-0.362592,-0.778265,0.088904,-0.009744,0.039489,1.000000,0.000138,-0.000115,0.000057,0.999964,-0.000827,-0.000630,-0.008408,-0.094104,-0.073008,-0.963486,0.999858,-0.016815,0.001274,0.016817,0.999857,-0.001642,-0.001246,0.001664,0.999998
08776,8.958283,-0.947290,3.934068,0.045289,0.013855,0.017005,0.033834,-0.016876,0.020775,0.403014,-0.360693,-0.776680,0.089580,-0.009470,0.039347,1.000000,0.000169,-0.000084,0.000104,0.999966,-0.000883,-0.000688,-0.008192,-0.100588,-0.079609,-0.938706,0.999865,-0.016383,0.001389,0.016385,0.999864,-0.001756,-0.001360,0.001778,0.999997
08777,8.981111,-0.938673,3.928551,0.060270,0.021855,0.034691,0.036309,-0.020831,0.020225,0.402803,-0.360179,-0.772017,0.089808,-0.009385,0.039293,1.000000,0.000182,-0.000104,0.000101,0.999967,-0.000938,-0.000766,-0.007972,-0.106815,-0.088578,-0.913495,0.999872,-0.015943,0.001546,0.015946,0.999871,-0.001864,-0.001516,0.001889,0.999997
08778,8.994747,-0.891115,3.959889,0.048046,0.077083,0.055039,0.034221,-0.014824,0.028714,0.403727,-0.363105,-0.779156,0.089946,-0.008905,0.039604,1.000000,0.000171,-0.000074,0.000144,0.999969,-0.001027,-0.000803,-0.007739,-0.116986,-0.092962,-0.886786,0.999879,-0.015477,0.001623,0.015480,0.999878,-0.002042,-0.001591,0.002067,0.999997
08779,8.980934,-0.865424,3.942866,0.062677,0.099686,0.033045,0.031408,-0.009856,0.030688,0.400293,-0.364215,-0.775163,0.089809,-0.008647,0.039432,1.000000,0.000157,-0.000049,0.000153,0.999971,-0.001125,-0.000813,-0.007528,-0.128246,-0.094097,-0.862556,0.999885,-0.015054,0.001642,0.015058,0.999884,-0.002238,-0.001608,0.002263,0.999996
08780,8.957320,-0.859200,3.976410,0.024671,0.116458,0.024460,0.027656,-0.007872,0.038140,0.402600,-0.362592,-0.776490,0.089573,-0.008580,0.039766,1.000000,0.000138,-0.000039,0.000191,0.999972,-0.001262,-0.000805,-0.007309,-0.143912,-0.093339,-0.837474,0.999892,-0.014616,0.001629,0.014620,0.999890,-0.002512,-0.001592,0.002535,0.999996
08781,9.010877,-0.883151,3.930917,0.081889,0.084806,0.057169,0.021125,-0.005440,0.043508,0.402979,-0.356657,-0.779082,0.090110,-0.008816,0.039311,1.000000,0.000106,-0.000027,0.000218,0.999973,-0.001431,-0.000779,-0.007117,-0.163362,-0.090463,-0.815382,0.999897,-0.014231,0.001579,0.014235,0.999895,-0.002851,-0.001538,0.002873,0.999995
08782,9.032793,-0.877758,3.926783,0.096883,0.092791,0.074851,0.016960,0.002803,0.053782,0.400817,-0.362829,-0.780238,0.090331,-0.008757,0.039266,1.000000,0.000085,0.000014,0.000269,0.999974,-0.001647,-0.000701,-0.006920,-0.188197,-0.081655,-0.792857,0.999903,-0.013838,0.001425,0.013842,0.999899,-0.003285,-0.001380,0.003304,0.999994
08783,9.031360,-0.940633,3.941146,0.071485,0.040136,0.085604,0.014158,0.011564,0.062457,0.400402,-0.364728,-0.780048,0.090319,-0.009381,0.039406,1.000000,0.000071,0.000058,0.000312,0.999975,-0.001902,-0.000571,-0.006735,-0.217478,-0.066948,-0.771642,0.999909,-0.013467,0.001168,0.013472,0.999902,-0.003796,-0.001117,0.003811,0.999992
08784,9.067174,-1.039568,3.938185,0.069529,-0.051284,0.126939,0.020084,0.013472,0.071932,0.399791,-0.362316,-0.777350,0.090678,-0.010367,0.039375,1.000000,0.000100,0.000067,0.000360,0.999976,-0.002180,-0.000420,-0.006493,-0.249454,-0.049723,-0.743912,0.999915,-0.012983,0.000868,0.012987,0.999906,-0.004354,-0.000811,0.004365,0.999990
08785,9.088383,-1.112153,3.920053,0.082118,-0.120469,0.146285,0.041026,0.030896,0.089178,0.404745,-0.360693,-0.772908,0.090895,-0.011089,0.039184,1.000000,0.000205,0.000154,0.000446,0.999978,-0.002470,-0.000165,-0.006133,-0.282889,-0.020678,-0.702759,0.999925,-0.012265,0.000361,0.012267,0.999913,-0.004937,-0.000300,0.004941,0.999988
08786,9.028027,-1.185547,3.899284,0.064367,-0.190316,0.090587,0.053624,0.031994,0.107969,0.400082,-0.363701,-0.770500,0.090293,-0.011817,0.038975,1.000000,0.000268,0.000160,0.000540,0.999980,-0.002816,0.000119,-0.005675,-0.322820,0.011855,-0.650326,0.999936,-0.011350,-0.000207,0.011349,0.999920,-0.005634,0.000271,0.005632,0.999984
08787,8.988165,-1.443142,3.886104,0.008591,-0.435892,0.075765,0.081082,0.038393,0.135816,0.399791,-0.362316,-0.777350,0.089899,-0.014386,0.038838,1.000000,0.000405,0.000192,0.000679,0.999982,-0.003218,0.000473,-0.005045,-0.369027,0.052297,-0.578265,0.999949,-0.010092,-0.000913,0.010086,0.999928,-0.006441,0.000978,0.006431,0.999979
08788,9.088824,-1.670267,3.842360,0.046925,-0.658659,0.173514,0.137273,0.037219,0.160459,0.396164,-0.358639,-0.771119,0.090909,-0.016656,0.038395,0.999999,0.000686,0.000186,0.000802,0.999985,-0.003616,0.000846,-0.004103,-0.414769,0.095228,-0.470488,0.999965,-0.008211,-0.001662,0.008199,0.999940,-0.007239,0.001721,0.007225,0.999972
08789,9.194149,-1.902894,3.824461,0.066416,-0.880520,0.286824,0.216541,0.058057,0.196817,0.402600,-0.362592,-0.776490,0.091971,-0.018980,0.038197,0.999999,0.001083,0.000290,0.000984,0.999987,-0.003986,0.001362,-0.002737,-0.457170,0.154787,-0.314301,0.999981,-0.005486,-0.002702,0.005464,0.999953,-0.007979,0.002745,0.007964,0.999965
08790,9.127642,-1.885983,3.857349,0.028023,-0.849146,0.238584,0.320398,0.074095,0.245802,0.400402,-0.364728,-0.780048,0.091314,-0.018809,0.038510,0.999998,0.001602,0.000370,0.001229,0.999988,-0.004338,0.002018,-0.000809,-0.497277,0.230787,-0.093725,0.999991,-0.001636,-0.004028,0.001601,0.999961,-0.008679,0.004042,0.008672,0.999954
08791,9.011723,-1.690747,3.864939,0.031502,-0.650706,0.116214,0.399978,0.076061,0.302681,0.399791,-0.362316,-0.777350,0.090157,-0.016848,0.038581,0.999997,0.002000,0.000380,0.001513,0.999984,-0.004772,0.002751,0.001588,-0.546294,0.316096,0.180452,0.999980,0.003149,-0.005517,-0.003202,0.999949,-0.009534,0.005487,0.009552,0.999939
08792,8.997481,-1.623349,3.870952,0.052665,-0.574126,0.099011,0.454995,0.073539,0.352887,0.406329,-0.366268,-0.782499,0.090018,-0.016163,0.038640,0.999996,0.002275,0.000368,0.001764,0.999970,-0.005315,0.003533,0.004345,-0.607281,0.407461,0.495758,0.999937,0.008652,-0.007111,-0.008727,0.999906,-0.010599,0.007019,0.010660,0.999919
08793,8.865551,-1.444454,3.905262,0.022364,-0.382379,-0.025515,0.517204,0.083761,0.400902,0.396440,-0.367680,-0.775544,0.088701,-0.014368,0.038978,0.999995,0.002586,0.000419,0.002005,0.999945,-0.005931,0.004423,0.007462,-0.675902,0.511911,0.852116,0.999850,0.014871,-0.008934,-0.014976,0.999818,-0.011796,0.008757,0.011928,0.999891
08794,8.697697,-1.229166,3.954683,-0.031375,-0.152021,-0.180649,0.546644,0.069197,0.426193,0.394498,-0.367167,-0.774653,0.087017,-0.012214,0.039483,0.999994,0.002733,0.000346,0.002131,0.999906,-0.006610,0.005272,0.010787,-0.750899,0.612230,1.232118,0.999712,0.021502,-0.010685,-0.021641,0.999680,-0.013105,0.010400,0.013332,0.999857
08795,8.675122,-1.087656,4.051174,-0.083551,0.019941,-0.177059,0.550693,0.041637,0.437835,0.392904,-0.368790,-0.771772,0.086783,-0.010798,0.040464,0.999994,0.002753,0.000208,0.002189,0.999855,-0.007359,0.005997,0.014166,-0.833518,0.699063,1.618294,0.999527,0.028239,-0.012201,-0.028415,0.999490,-0.014546,0.011784,0.014886,0.999820
08796,8.860948,-1.028359,4.100847,-0.024245,0.107424,0.004579,0.546877,0.019874,0.436302,0.390649,-0.370175,-0.770469,0.088636,-0.010202,0.040972,0.999994,0.002734,0.000099,0.002182,0.999791,-0.008131,0.006617,0.017537,-0.918352,0.774418,2.003646,0.999297,0.034960,-0.013516,-0.035175,0.999253,-0.016026,0.012945,0.016490,0.999780
08797,9.051745,-1.050153,4.159374,0.013885,0.118666,0.203449,0.541583,0.028062,0.426918,0.397108,-0.375694,-0.768866,0.090546,-0.010421,0.041553,0.999994,0.002708,0.000140,0.002135,0.999717,-0.008863,0.007264,0.020862,-0.998171,0.853379,2.383483,0.999024,0.041583,-0.014894,-0.041841,0.998972,-0.017419,0.014154,0.018025,0.999737
08798,9.076499,-0.985888,4.200345,0.012399,0.204726,0.234980,0.531032,0.052445,0.412960,0.394131,-0.381866,-0.771798,0.090796,-0.009783,0.041954,0.999994,0.002655,0.000262,0.002065,0.999632,-0.009534,0.008015,0.024096,-1.070168,0.944536,2.752877,0.998710,0.048022,-0.016485,-0.048327,0.998657,-0.018674,0.015566,0.019447,0.999690
08799,9.005947,-0.985568,4.178752,0.015945,0.210913,0.162061,0.515825,0.066427,0.399764,0.393862,-0.375751,-0.776510,0.090093,-0.009783,0.041732,0.999995,0.002579,0.000332,0.001999,0.999539,-0.010156,0.008827,0.027220,-1.135969,1.042804,3.109465,0.998362,0.054235,-0.018199,-0.054593,0.998312,-0.019822,0.017094,0.020783,0.999638
08800,8.974731,-0.965200,4.125517,0.068110,0.231679,0.108954,0.497659,0.074695,0.385639,0.394809,-0.380243,-0.776676,0.089781,-0.009581,0.041198,0.999995,0.002488,0.000373,0.001928,0.999438,-0.010755,0.009655,0.030234,-1.198633,1.143047,3.453522,0.997985,0.060227,-0.019949,-0.060642,0.997940,-0.020914,0.018648,0.022082,0.999582
08801,8.865801,-0.864650,4.079908,0.092314,0.328846,-0.020905,0.480294,0.090126,0.376548,0.388517,-0.380839,-0.773789,0.088693,-0.008577,0.040738,0.999995,0.002401,0.000451,0.001883,0.999331,-0.011336,0.010550,0.033128,-1.258500,1.251291,3.783620,0.997582,0.065973,-0.021837,-0.066451,0.997548,-0.021958,0.020335,0.023356,0.999520
08802,8.620087,-0.789251,4.089290,0.003445,0.404119,-0.247764,0.450911,0.090707,0.361488,0.388984,-0.378703,-0.774003,0.086234,-0.007829,0.040836,0.999996,0.002255,0.000454,0.001807,0.999220,-0.011913,0.011425,0.035872,-1.317597,1.357252,4.096515,0.997165,0.071417,-0.023686,-0.071961,0.997142,-0.022988,0.021977,0.024627,0.999455
08803,8.422866,-0.757752,4.128237,-0.099572,0.442516,-0.412930,0.409109,0.065646,0.337882,0.388482,-0.376804,-0.776190,0.084255,-0.007520,0.041239,0.999996,0.002046,0.000328,0.001689,0.999111,-0.012495,0.012148,0.038386,-1.377741,1.445945,4.383051,0.996758,0.076400,-0.025234,-0.077007,0.996741,-0.024036,0.023315,0.025901,0.999393
08804,8.400350,-0.738964,4.093706,-0.066221,0.464167,-0.450502,0.364802,0.037902,0.311772,0.390960,-0.383252,-0.772492,0.084023,-0.007333,0.040908,0.999997,0.001824,0.000190,0.001559,0.999006,-0.013082,0.012702,0.040668,-1.439066,1.515187,4.643186,0.996370,0.080922,-0.026442,-0.081587,0.996350,-0.025105,0.024314,0.027171,0.999335
08805,8.483041,-0.738793,4.155135,-0.077603,0.490248,-0.350839,0.316648,0.013573,0.280582,0.388552,-0.384875,-0.771387,0.084844,-0.007335,0.041534,0.999998,0.001583,0.000068,0.001403,0.998910,-0.013656,0.013101,0.042667,-1.499789,1.566631,4.871108,0.996016,0.084883,-0.027339,-0.085598,0.995986,-0.026163,0.025009,0.028399,0.999284
08806,8.579664,-0.803942,4.176269,-0.057608,0.445902,-0.247332,0.263426,-0.002389,0.247153,0.384465,-0.386260,-0.774078,0.085806,-0.007988,0.041753,0.999998,0.001317,-0.000012,0.001236,0.998824,-0.014207,0.013377,0.044380,-1.558840,1.603587,5.066381,0.995703,0.088275,-0.027984,-0.089035,0.995657,-0.027193,0.025462,0.029568,0.999238
08807,8.635510,-0.806281,4.215245,-0.065178,0.463285,-0.180890,0.217787,-0.015091,0.212117,0.384174,-0.384875,-0.780929,0.086360,-0.008017,0.042150,0.999999,0.001089,-0.000075,0.001061,0.998750,-0.014706,0.013553,0.045815,-1.612757,1.628539,5.229924,0.995435,0.091116,-0.028420,-0.091913,0.995370,-0.028133,0.025725,0.030617,0.999200
08808,8.652529,-0.864632,4.229346,-0.075575,0.418197,-0.152428,0.167685,-0.015660,0.177430,0.388728,-0.381353,-0.778452,0.086530,-0.008605,0.042293,0.999999,0.000838,-0.000078,0.000887,0.998688,-0.015164,0.013679,0.046959,-1.662670,1.647278,5.360295,0.995215,0.093380,-0.028746,-0.094209,0.995130,-0.029003,0.025898,0.031572,0.999166
08809,8.686910,-0.911764,4.214973,-0.052149,0.379924,-0.121834,0.119164,-0.017631,0.142338,0.386191,-0.386717,-0.774870,0.086872,-0.009081,0.042152,1.000000,0.000596,-0.000088,0.000712,0.998641,-0.015574,0.013754,0.047798,-1.707896,1.659491,5.455784,0.995052,0.095038,-0.028960,-0.095895,0.994946,-0.029791,0.025982,0.032421,0.999137
08810,8.663343,-0.905704,4.247055,-0.090200,0.396652,-0.130445,0.078022,-0.021599,0.111368,0.384879,-0.384361,-0.774268,0.086634,-0.009025,0.042476,1.000000,0.000390,-0.000108,0.000557,0.998606,-0.015936,0.013771,0.048405,-1.748232,1.664429,5.524786,0.994935,0.096236,-0.029046,-0.097114,0.994806,-0.030495,0.025960,0.033161,0.999113
08811,8.634742,-0.914886,4.226797,-0.086305,0.388322,-0.163679,0.037789,-0.023037,0.074647,0.383963,-0.384361,-0.776265,0.086346,-0.009125,0.042276,1.000000,0.000189,-0.000115,0.000373,0.998585,-0.016218,0.013743,0.048743,-1.780132,1.663413,5.563221,0.994870,0.096903,-0.029028,-0.097795,0.994722,-0.031051,0.025866,0.033731,0.999096
08812,8.606940,-0.942867,4.177364,-0.059507,0.355983,-0.205996,-0.008952,-0.034573,0.044699,0.387666,-0.389367,-0.775547,0.086064,-0.009408,0.041789,1.000000,-0.000045,-0.000173,0.000223,0.998578,-0.016481,0.013615,0.048828,-1.810799,1.650405,5.572670,0.994861,0.097068,-0.028801,-0.097965,0.994688,-0.031586,0.025582,0.034245,0.999086
08813,8.648720,-0.969754,4.211342,-0.077793,0.342540,-0.150763,-0.052359,-0.042166,0.016822,0.378604,-0.380685,-0.773807,0.086479,-0.009679,0.042134,1.000000,-0.000262,-0.000211,0.000084,0.998586,-0.016714,0.013422,0.048651,-1.838763,1.629253,5.552305,0.994906,0.096715,-0.028432,-0.097613,0.994708,-0.032074,0.025179,0.034686,0.999081
08814,8.623135,-1.096042,4.145056,-0.049093,0.209891,-0.184874,-0.090857,-0.052419,-0.010450,0.383302,-0.381712,-0.773813,0.086220,-0.010946,0.041478,1.000000,-0.000454,-0.000262,-0.000052,0.998605,-0.016922,0.013138,0.048262,-1.864772,1.597180,5.507864,0.994996,0.095945,-0.027872,-0.096834,0.994769,-0.032528,0.024606,0.035064,0.999082
08815,8.631883,-1.141225,4.106060,-0.021838,0.162949,-0.187487,-0.108642,-0.059528,-0.034508,0.378604,-0.380685,-0.773807,0.086305,-0.011405,0.041092,1.000000,-0.000543,-0.000298,-0.000173,0.998632,-0.017065,0.012794,0.047742,-1.883885,1.557643,5.448535,0.995114,0.094917,-0.027183,-0.095790,0.994859,-0.032862,0.023924,0.035305,0.999090
08816,8.681928,-1.208184,4.103110,-0.013009,0.102383,-0.134855,-0.129798,-0.076979,-0.056349,0.380792,-0.385747,-0.776959,0.086800,-0.012080,0.041072,1.000000,-0.000649,-0.000385,-0.000282,0.998666,-0.017173,0.012338,0.047097,-1.899655,1.504747,5.375207,0.995259,0.093645,-0.026260,-0.094493,0.994974,-0.033138,0.023025,0.035462,0.999106
08817,8.772524,-1.237467,4.094302,0.021595,0.080215,-0.053338,-0.147387,-0.079733,-0.066770,0.383478,-0.378189,-0.780878,0.087705,-0.012374,0.040987,1.000000,-0.000737,-0.000399,-0.000334,0.998706,-0.017268,0.011855,0.046352,-1.914243,1.448553,5.290423,0.995422,0.092175,-0.025279,-0.092994,0.995107,-0.033393,0.022078,0.035591,0.999123
08818,8.834578,-1.269775,4.066184,0.059996,0.049575,-0.005043,-0.155341,-0.080836,-0.076152,0.383963,-0.384361,-0.776265,0.088324,-0.012700,0.040707,1.000000,-0.000777,-0.000404,-0.000381,0.998747,-0.017346,0.011355,0.045554,-1.926849,1.390230,5.199603,0.995592,0.090599,-0.024262,-0.091387,0.995248,-0.033614,0.021101,0.035683,0.999140
08819,8.896465,-1.282209,4.066312,0.075466,0.042951,0.052327,-0.170693,-0.075206,-0.078866,0.381775,-0.379299,-0.773113,0.088944,-0.012822,0.040708,0.999999,-0.000853,-0.000376,-0.000394,0.998791,-0.017436,0.010882,0.044665,-1.940782,1.334865,5.098447,0.995773,0.088843,-0.023296,-0.089602,0.995402,-0.033857,0.020181,0.035802,0.999155
08820,8.935601,-1.341008,4.014486,0.121907,-0.019429,0.073876,-0.174359,-0.070873,-0.079508,0.383898,-0.375834,-0.776504,0.089336,-0.013411,0.040188,0.999999,-0.000872,-0.000354,-0.000398,0.998833,-0.017531,0.010425,0.043768,-1.955103,1.281216,4.996251,0.995951,0.087069,-0.022360,-0.087800,0.995554,-0.034108,0.019290,0.035933,0.999168
08821,9.048772,-1.343253,4.029175,0.148597,-0.009778,0.182145,-0.174925,-0.062095,-0.073956,0.382453,-0.377676,-0.777990,0.090470,-0.013431,0.040332,1.000000,-0.000875,-0.000310,-0.000370,0.998875,-0.017640,0.010022,0.042865,-1.970774,1.233919,4.893205,0.996124,0.085279,-0.021534,-0.085986,0.995703,-0.034382,0.018510,0.036100,0.999177
08822,9.046057,-1.359754,3.970205,0.190403,-0.034428,0.157526,-0.175252,-0.042082,-0.068660,0.383048,-0.371798,-0.780681,0.090448,-0.013594,0.039733,1.000000,-0.000876,-0.000210,-0.000343,0.998914,-0.017761,0.009716,0.041969,-1.987137,1.197711,4.790885,0.996288,0.083501,-0.020902,-0.084191,0.995846,-0.034668,0.017921,0.036299,0.999180
08823,8.979514,-1.382231,3.979052,0.145474,-0.057115,0.104503,-0.171512,-0.022079,-0.055908,0.383083,-0.375834,-0.778279,0.089787,-0.013813,0.039812,1.000000,-0.000858,-0.000110,-0.000280,0.998949,-0.017913,0.009525,0.041092,-2.006547,1.174819,4.690567,0.996441,0.081757,-0.020503,-0.082440,0.995981,-0.035006,0.017559,0.036572,0.999177
08824,8.900467,-1.378654,3.970563,0.115059,-0.057576,0.029458,-0.167098,-0.022486,-0.052486,0.386306,-0.374211,-0.777609,0.088997,-0.013777,0.039727,1.000000,-0.000835,-0.000112,-0.000262,0.998982,-0.018072,0.009333,0.040255,-2.026542,1.151862,4.594719,0.996585,0.080091,-0.020102,-0.080766,0.996106,-0.035355,0.017193,0.036858,0.999173
08825,8.891091,-1.414697,3.989429,0.085608,-0.087230,0.033808,-0.161397,-0.016652,-0.045319,0.381956,-0.375321,-0.775613,0.088904,-0.014135,0.039913,1.000000,-0.000807,-0.000083,-0.000227,0.999013,-0.018241,0.009185,0.039443,-2.047530,1.133980,4.501660,0.996720,0.078473,-0.019790,-0.079143,0.996223,-0.035722,0.016912,0.037171,0.999166
08826,8.886145,-1.394450,3.991069,0.081362,-0.063740,0.027333,-0.162396,-0.012774,-0.036903,0.385390,-0.374211,-0.779606,0.088856,-0.013928,0.039928,1.000000,-0.000812,-0.000064,-0.000185,0.999041,-0.018450,0.009057,0.038653,-2.072944,1.118640,4.411085,0.996848,0.076897,-0.019523,-0.077566,0.996331,-0.036165,0.016670,0.037565,0.999155
08827,8.870432,-1.447105,3.958760,0.093712,-0.118441,0.007070,-0.153977,-0.006167,-0.032991,0.383237,-0.373184,-0.774052,0.088701,-0.014455,0.039601,1.000000,-0.000770,-0.000031,-0.000165,0.999067,-0.018647,0.008972,0.037898,-2.096649,1.108188,4.324540,0.996966,0.075392,-0.019340,-0.076061,0.996432,-0.036578,0.016514,0.037938,0.999144
08828,8.854253,-1.460848,3.984128,0.059905,-0.124873,0.004948,-0.148425,-0.004472,-0.039405,0.385805,-0.372312,-0.779797,0.088539,-0.014596,0.039854,1.000000,-0.000742,-0.000022,-0.000197,0.999093,-0.018808,0.008884,0.037162,-2.116293,1.097292,4.240048,0.997080,0.073922,-0.019150,-0.074590,0.996531,-0.036921,0.016354,0.038242,0.999135
08829,8.854750,-1.443782,4.010550,0.036975,-0.100597,0.014018,-0.143811,0.001065,-0.044339,0.387297,-0.370689,-0.782899,0.088545,-0.014429,0.040115,1.000000,-0.000719,0.000005,-0.000222,0.999118,-0.018926,0.008825,0.036426,-2.130834,1.089454,4.155695,0.997191,0.072454,-0.019013,-0.073122,0.996630,-0.037175,0.016256,0.038461,0.999128
08830,8.843199,-1.418428,3.990789,0.051531,-0.078028,-0.008007,-0.143142,0.005478,-0.051254,0.390090,-0.362675,-0.782031,0.088429,-0.014178,0.039916,1.000000,-0.000716,0.000027,-0.000256,0.999144,-0.019014,0.008775,0.035683,-2.141994,1.082448,4.070505,0.997299,0.070971,-0.018891,-0.071639,0.996730,-0.037369,0.016177,0.038622,0.999123
08831,8.826655,-1.411204,4.046023,-0.005202,-0.060318,-0.001063,-0.142968,0.006243,-0.060753,0.385144,-0.369662,-0.777345,0.088264,-0.014110,0.040468,1.000000,-0.000715,0.000031,-0.000304,0.999171,-0.019063,0.008724,0.034902,-2.148619,1.075157,3.981022,0.997411,0.069414,-0.018764,-0.070079,0.996837,-0.037485,0.016103,0.038703,0.999121
08832,8.850407,-1.423247,4.011054,0.032802,-0.076375,0.007546,-0.146596,0.004717,-0.066782,0.383202,-0.369149,-0.776454,0.088500,-0.014233,0.040119,1.000000,-0.000733,0.000024,-0.000334,0.999198,-0.019090,0.008653,0.034112,-2.152909,1.065427,3.890566,0.997523,0.067839,-0.018594,-0.068500,0.996944,-0.037560,0.015989,0.038741,0.999121
08833,8.850961,-1.404236,4.038136,0.009814,-0.052094,0.016612,-0.147587,0.003317,-0.066484,0.384299,-0.365170,-0.776957,0.088506,-0.014042,0.040390,1.000000,-0.000738,0.000017,-0.000332,0.999225,-0.019116,0.008578,0.033317,-2.157004,1.055225,3.799574,0.997633,0.066255,-0.018416,-0.066911,0.997049,-0.037632,0.015868,0.038775,0.999122
08834,8.874638,-1.396432,4.031899,0.024788,-0.044075,0.034286,-0.147812,0.006395,-0.079998,0.391851,-0.367167,-0.780422,0.088742,-0.013970,0.040326,1.000000,-0.000739,0.000032,-0.000400,0.999254,-0.019086,0.008501,0.032494,-2.154725,1.044511,3.705356,0.997744,0.064615,-0.018229,-0.065264,0.997160,-0.037592,0.015748,0.038697,0.999127
08835,8.908945,-1.353857,4.003478,0.069426,-0.006174,0.047598,-0.150806,0.007347,-0.077976,0.387266,-0.366197,-0.780736,0.089086,-0.013543,0.040042,1.000000,-0.000754,0.000037,-0.000390,0.999281,-0.019069,0.008435,0.031650,-2.153796,1.035151,3.608797,0.997854,0.062933,-0.018066,-0.063577,0.997269,-0.037576,0.015652,0.038644,0.999130
08836,8.899235,-1.405871,3.995900,0.062884,-0.059835,0.042897,-0.145416,0.015497,-0.081679,0.391115,-0.363188,-0.784919,0.088990,-0.014066,0.039962,1.000000,-0.000727,0.000077,-0.000408,0.999308,-0.019018,0.008401,0.030829,-2.148954,1.029301,3.514746,0.997958,0.061296,-0.017964,-0.061935,0.997376,-0.037491,0.015619,0.038528,0.999135
08837,8.887471,-1.377179,3.977737,0.077482,-0.037250,0.020865,-0.139031,0.019210,-0.084171,0.390750,-0.365325,-0.784483,0.088873,-0.013782,0.039778,1.000000,-0.000695,0.000096,-0.000421,0.999335,-0.018940,0.008386,0.030017,-2.140916,1.025543,3.421805,0.998057,0.059677,-0.017898,-0.060312,0.997480,-0.037351,0.015624,0.038358,0.999142
08838,8.841897,-1.371082,4.015596,0.024459,-0.028224,-0.005413,-0.139006,0.019910,-0.086803,0.389588,-0.360776,-0.784219,0.088417,-0.013721,0.040157,1.000000,-0.000695,0.000100,-0.000434,0.999360,-0.018849,0.008369,0.029212,-2.131364,1.021559,3.329587,0.998153,0.058070,-0.017829,-0.058701,0.997583,-0.037185,0.015626,0.038163,0.999149
08839,8.853112,-1.353294,3.964459,0.077047,-0.021985,-0.018837,-0.133936,0.022595,-0.084960,0.390293,-0.360262,-0.777558,0.088530,-0.013544,0.039644,1.000000,-0.000670,0.000113,-0.000425,0.999385,-0.018756,0.008369,0.028419,-2.121482,1.019521,3.238774,0.998245,0.056488,-0.017793,-0.057116,0.997681,-0.037013,0.015661,0.037964,0.999156
08840,8.847007,-1.327977,3.970482,0.072802,0.001500,-0.025324,-0.130059,0.025012,-0.088335,0.398307,-0.366865,-0.783384,0.088469,-0.013293,0.039702,1.000000,-0.000650,0.000125,-0.000442,0.999409,-0.018634,0.008376,0.027647,-2.108318,1.018356,3.150473,0.998331,0.054950,-0.017773,-0.055574,0.997777,-0.036783,0.015712,0.037709,0.999165
08841,8.807608,-1.344647,4.003017,0.024165,-0.012658,-0.045117,-0.133125,0.020008,-0.084913,0.395202,-0.361802,-0.782229,0.088074,-0.013457,0.040030,1.000000,-0.000666,0.000100,-0.000425,0.999432,-0.018537,0.008371,0.026856,-2.098042,1.015751,3.059867,0.998417,0.053371,-0.017727,-0.053992,0.997870,-0.036604,0.015736,0.037503,0.999173
08842,8.837108,-1.358022,3.992733,0.043375,-0.027787,-0.020957,-0.130150,0.019081,-0.079947,0.388598,-0.364298,-0.778929,0.088369,-0.013590,0.039928,1.000000,-0.000651,0.000095,-0.000400,0.999454,-0.018459,0.008358,0.026105,-2.089821,1.012520,2.973877,0.998497,0.051873,-0.017671,-0.052490,0.997956,-0.036460,0.015743,0.037333,0.999179
08843,8.876499,-1.318446,3.989754,0.069160,0.011047,0.007891,-0.122866,0.023487,-0.073118,0.394599,-0.362316,-0.788667,0.088765,-0.013192,0.039895,1.000000,-0.000614,0.000117,-0.000366,0.999473,-0.018388,0.008378,0.025389,-2.082457,1.013149,2.891907,0.998570,0.050444,-0.017682,-0.051060,0.998034,-0.036332,0.015814,0.037183,0.999183
08844,8.871989,-1.355954,4.035505,0.020792,-0.017624,0.027808,-0.126181,0.025466,-0.069698,0.398875,-0.362316,-0.779347,0.088720,-0.013565,0.040352,1.000000,-0.000631,0.000127,-0.000348,0.999492,-0.018341,0.008409,0.024673,-2.077632,1.015013,2.809826,0.998641,0.049013,-0.017714,-0.049630,0.998110,-0.036248,0.015904,0.037078,0.999186
08845,8.836782,-1.335537,4.022872,0.020462,-0.002750,-0.011900,-0.125355,0.021527,-0.064336,0.390869,-0.358639,-0.782658,0.088368,-0.013359,0.040228,1.000000,-0.000627,0.000108,-0.000322,0.999510,-0.018319,0.008432,0.023957,-2.075789,1.016073,2.727707,0.998710,0.047582,-0.017733,-0.048200,0.998181,-0.036216,0.015977,0.037024,0.999187
08846,8.814035,-1.342509,4.027409,0.005464,-0.010114,-0.029568,-0.120389,0.018234,-0.061135,0.394177,-0.361289,-0.779340,0.088140,-0.013428,0.040274,1.000000,-0.000602,0.000091,-0.000306,0.999526,-0.018304,0.008437,0.023289,-2.074699,1.015260,2.651137,0.998773,0.046247,-0.017719,-0.046865,0.998245,-0.036197,0.016014,0.036983,0.999188
08847,8.781487,-1.402854,4.024365,-0.016061,-0.071476,-0.051916,-0.115731,0.015996,-0.056530,0.398425,-0.360179,-0.781558,0.087814,-0.014030,0.040245,1.000000,-0.000579,0.000080,-0.000283,0.999540,-0.018301,0.008437,0.022646,-2.075054,1.013908,2.577455,0.998832,0.044963,-0.017695,-0.045580,0.998304,-0.036203,0.016037,0.036967,0.999188
08848,8.781743,-1.402451,4.023947,-0.016068,-0.071147,-0.051914,-0.110176,0.010560,-0.056175,0.399522,-0.356201,-0.782062,0.087816,-0.014027,0.040243,1.000000,-0.000551,0.000053,-0.000281,0.999554,-0.018293,0.008412,0.022039,-2.074840,1.009736,2.507912,0.998887,0.043751,-0.017622,-0.044366,0.998359,-0.036199,0.016010,0.036941,0.999189
08849,8.775768,-1.379052,4.028995,-0.020181,-0.047622,-0.058406,-0.109931,0.004238,-0.058875,0.394177,-0.361289,-0.779340,0.087754,-0.013794,0.040296,1.000000,-0.000550,0.000021,-0.000294,0.999569,-0.018281,0.008360,0.021412,-2.074190,1.002459,2.436173,0.998943,0.042500,-0.017495,-0.043111,0.998415,-0.036188,0.015930,0.036904,0.999192
08850,8.760354,-1.408609,4.025832,-0.030941,-0.078143,-0.069575,-0.101656,-0.006925,-0.057704,0.401494,-0.361206,-0.785116,0.087598,-0.014091,0.040269,1.000000,-0.000508,-0.000035,-0.000289,0.999582,-0.018265,0.008249,0.020850,-2.073179,0.988533,2.372045,0.998994,0.041382,-0.017252,-0.041985,0.998463,-0.036171,0.015729,0.036858,0.999197
08851,8.778365,-1.395191,3.996046,0.002927,-0.071104,-0.067454,-0.090610,-0.011280,-0.061146,0.392811,-0.359153,-0.783549,0.087777,-0.013961,0.039972,1.000000,-0.000453,-0.000056,-0.000306,0.999595,-0.018211,0.008119,0.020323,-2.067796,0.972408,2.311893,0.999042,0.040333,-0.016971,-0.040925,0.998511,-0.036077,0.015491,0.036737,0.999205
08852,8.785176,-1.379548,4.046084,-0.038915,-0.045778,-0.042854,-0.087846,-0.016961,-0.060286,0.398606,-0.356201,-0.784059,0.087844,-0.013804,0.040474,1.000000,-0.000439,-0.000085,-0.000301,0.999607,-0.018164,0.007958,0.019824,-2.063238,0.952817,2.255126,0.999087,0.039344,-0.016629,-0.039922,0.998554,-0.035998,0.015189,0.036629,0.999214
08853,8.849600,-1.368565,3.977635,0.047866,-0.047309,-0.014451,-0.084327,-0.020093,-0.058219,0.397320,-0.358794,-0.790184,0.088488,-0.013695,0.039791,1.000000,-0.000422,-0.000100,-0.000291,0.999618,-0.018123,0.007783,0.019338,-2.059391,0.931780,2.199802,0.999131,0.038379,-0.016262,-0.038944,0.998595,-0.035931,0.014860,0.036533,0.999222
08854,8.856499,-1.353137,4.027412,0.006022,-0.021980,0.010147,-0.079609,-0.017074,-0.052317,0.390869,-0.358639,-0.782658,0.088558,-0.013538,0.040287,1.000000,-0.000398,-0.000085,-0.000262,0.999629,-0.018094,0.007632,0.018893,-2.056776,0.913420,2.149141,0.999170,0.037496,-0.015942,-0.038048,0.998631,-0.035885,0.014574,0.036462,0.999229
08855,8.868636,-1.335124,3.974023,0.058509,-0.015781,-0.003281,-0.077062,-0.016404,-0.048713,0.393015,-0.356740,-0.779076,0.088680,-0.013358,0.039753,1.000000,-0.000385,-0.000082,-0.000244,0.999638,-0.018075,0.007483,0.018462,-2.055336,0.895436,2.100005,0.999206,0.036639,-0.015628,-0.037180,0.998665,-0.035860,0.014293,0.036413,0.999235
08856,8.847045,-1.341617,3.976240,0.043516,-0.023152,-0.020946,-0.068882,-0.009976,-0.044846,0.397815,-0.357767,-0.778861,0.088465,-0.013422,0.039771,1.000000,-0.000344,-0.000050,-0.000224,0.999646,-0.018049,0.007375,0.018076,-2.052944,0.882279,2.056087,0.999238,0.035874,-0.015398,-0.036406,0.998695,-0.035819,0.014093,0.036352,0.999240
08857,8.906055,-1.352219,3.982867,0.058971,-0.029691,0.036433,-0.073349,-0.008918,-0.043946,0.396833,-0.349240,-0.781096,0.089056,-0.013527,0.039838,1.000000,-0.000367,-0.000045,-0.000220,0.999655,-0.018033,0.007276,0.017666,-2.051620,0.870029,2.009319,0.999270,0.035058,-0.015184,-0.035583,0.998725,-0.035796,0.013910,0.036310,0.999244
08858,8.884090,-1.358974,3.985849,0.043979,-0.037063,0.018770,-0.064126,-0.001005,-0.040286,0.399522,-0.356201,-0.782062,0.088838,-0.013595,0.039863,1.000000,-0.000321,-0.000005,-0.000201,0.999662,-0.018008,0.007218,0.017307,-2.049248,0.862587,1.968233,0.999297,0.034341,-0.015054,-0.034861,0.998752,-0.035754,0.013808,0.036254,0.999247
08859,8.894148,-1.304884,3.992926,0.050552,0.017362,0.023429,-0.059129,0.000928,-0.035821,0.397792,-0.356201,-0.785834,0.088939,-0.013053,0.039933,1.000000,-0.000296,0.000005,-0.000179,0.999668,-0.017996,0.007179,0.016962,-2.048169,0.857362,1.928847,0.999322,0.033655,-0.014963,-0.034171,0.998777,-0.035736,0.013742,0.036223,0.999249
08860,8.865822,-1.307471,3.973372,0.054360,0.009063,-0.009783,-0.060781,0.001556,-0.032771,0.396664,-0.355687,-0.783168,0.088656,-0.013077,0.039737,1.000000,-0.000304,0.000008,-0.000164,0.999674,-0.017995,0.007142,0.016631,-2.048435,0.852473,1.891017,0.999345,0.032995,-0.014878,-0.033509,0.998799,-0.035740,0.013681,0.036215,0.999250
08861,8.894879,-1.303907,3.991617,0.050540,0.018049,0.023428,-0.062433,0.002182,-0.029721,0.393195,-0.352762,-0.781576,0.088947,-0.013040,0.039919,1.000000,-0.000312,0.000011,-0.000149,0.999680,-0.018011,0.007112,0.016289,-2.050674,0.848326,1.851822,0.999368,0.032311,-0.014806,-0.032824,0.998821,-0.035779,0.013632,0.036243,0.999250
08862,8.872391,-1.311743,3.995419,0.035547,0.010674,0.005764,-0.060213,0.003876,-0.024719,0.397079,-0.353788,-0.783358,0.088723,-0.013116,0.039956,1.000000,-0.000301,0.000019,-0.000124,0.999684,-0.018043,0.007095,0.015976,-2.054564,0.845876,1.815944,0.999389,0.031685,-0.014763,-0.032198,0.998838,-0.035847,0.013610,0.036301,0.999248
08863,8.843222,-1.296986,4.005517,0.016270,0.026493,-0.018406,-0.060249,0.004546,-0.027400,0.400200,-0.354578,-0.786939,0.088431,-0.012970,0.040057,1.000000,-0.000301,0.000023,-0.000137,0.999689,-0.018064,0.007077,0.015650,-2.057337,0.843154,1.778668,0.999410,0.031035,-0.014715,-0.031547,0.998858,-0.035896,0.013584,0.036339,0.999247
08864,8.821442,-1.323058,3.979679,0.024320,-0.004959,-0.045110,-0.062680,-0.003332,-0.024233,0.394723,-0.355174,-0.782277,0.088212,-0.013229,0.039802,1.000000,-0.000313,-0.000017,-0.000121,0.999694,-0.018110,0.007026,0.015331,-2.062945,0.836723,1.742163,0.999431,0.030399,-0.014603,-0.030908,0.998874,-0.035994,0.013492,0.036424,0.999245
08865,8.821179,-1.305356,4.008174,0.001258,0.019460,-0.036071,-0.062278,0.000933,-0.024277,0.398827,-0.349515,-0.782011,0.088210,-0.013052,0.040085,1.000000,-0.000311,0.000005,-0.000121,0.999698,-0.018151,0.006995,0.015003,-2.068007,0.832560,1.704526,0.999452,0.029742,-0.014530,-0.030250,0.998891,-0.036082,0.013441,0.036502,0.999243
08866,8.844926,-1.315820,3.973459,0.039281,0.003432,-0.027447,-0.063753,-0.004137,-0.026700,0.394323,-0.353275,-0.784242,0.088447,-0.013157,0.039741,1.000000,-0.000319,-0.000021,-0.000134,0.999703,-0.018189,0.006937,0.014674,-2.072728,0.825305,1.666964,0.999473,0.029087,-0.014404,-0.029592,0.998908,-0.036164,0.013336,0.036571,0.999242
08867,8.902849,-1.309511,4.010122,0.031612,0.021122,0.038971,-0.064095,-0.002413,-0.027959,0.393873,-0.351139,-0.786454,0.089026,-0.013095,0.040106,1.000000,-0.000320,-0.000012,-0.000140,0.999707,-0.018225,0.006884,0.014332,-2.077137,0.818625,1.627833,0.999494,0.028404,-0.014287,-0.028906,0.998925,-0.036241,0.013242,0.036636,0.999241
08868,8.932535,-1.324362,3.998817,0.050836,0.006027,0.063144,-0.065766,0.004825,-0.028925,0.398571,-0.352165,-0.786460,0.089324,-0.013243,0.039990,1.000000,-0.000329,0.000024,-0.000145,0.999712,-0.018248,0.006867,0.013984,-2.080147,0.815981,1.588037,0.999515,0.027710,-0.014241,-0.028211,0.998943,-0.036294,0.013220,0.036678,0.999240
08869,8.909843,-1.332378,4.003029,0.035745,-0.001263,0.045482,-0.064929,0.012680,-0.026321,0.401218,-0.352165,-0.780691,0.089099,-0.013323,0.040029,1.000000,-0.000325,0.000063,-0.000132,0.999716,-0.018278,0.006887,0.013634,-2.083854,0.817501,1.547843,0.999533,0.027009,-0.014268,-0.027512,0.998960,-0.036358,0.013271,0.036734,0.999237
08870,8.886291,-1.322509,4.037141,-0.002287,0.015427,0.036854,-0.065271,0.014407,-0.027576,0.395604,-0.351139,-0.782681,0.088864,-0.013224,0.040369,1.000000,-0.000326,0.000072,-0.000138,0.999720,-0.018297,0.006918,0.013286,-2.086267,0.820370,1.507883,0.999551,0.026312,-0.014318,-0.026818,0.998977,-0.036400,0.013345,0.036768,0.999235
08871,8.857924,-1.343806,3.989410,0.024588,-0.016944,-0.005388,-0.062413,0.019951,-0.026735,0.402244,-0.352679,-0.783579,0.088581,-0.013437,0.039889,1.000000,-0.000312,0.000100,-0.000134,0.999724,-0.018309,0.006978,0.012941,-2.087808,0.826595,1.468215,0.999568,0.025620,-0.014426,-0.026131,0.998995,-0.036427,0.013479,0.036788,0.999232
08872,8.799519,-1.332324,3.981763,0.009174,-0.009833,-0.062770,-0.063880,0.014889,-0.029165,0.401931,-0.354578,-0.783167,0.087996,-0.013323,0.039815,1.000000,-0.000319,0.000074,-0.000146,0.999728,-0.018318,0.007010,0.012596,-2.089027,0.829529,1.428580,0.999584,0.024928,-0.014478,-0.025442,0.999012,-0.036448,0.013555,0.036802,0.999231
08873,8.815308,-1.301439,3.984448,0.019997,0.021323,-0.051624,-0.060146,0.017963,-0.035272,0.401685,-0.350029,-0.780905,0.088154,-0.013018,0.039840,1.000000,-0.000301,0.000090,-0.000176,0.999733,-0.018286,0.007055,0.012241,-2.085664,0.833852,1.387814,0.999601,0.024217,-0.014553,-0.024733,0.999032,-0.036390,0.013658,0.036735,0.999232
08874,8.849784,-1.302479,4.027202,-0.002623,0.031233,-0.002871,-0.059372,0.013888,-0.030030,0.402033,-0.352165,-0.778916,0.088499,-0.013026,0.040270,1.000000,-0.000297,0.000069,-0.000150,0.999737,-0.018282,0.007081,0.011915,-2.085462,0.836196,1.350405,0.999616,0.023564,-0.014594,-0.024082,0.999048,-0.036386,0.013723,0.036724,0.999231
08875,8.850391,-1.320095,3.997974,0.020525,0.007473,-0.011902,-0.064264,0.011354,-0.031765,0.397792,-0.356201,-0.785834,0.088504,-0.013202,0.039979,1.000000,-0.000321,0.000057,-0.000159,0.999741,-0.018283,0.007098,0.011553,-2.085767,0.837404,1.308891,0.999632,0.022840,-0.014615,-0.023359,0.999065,-0.036392,0.013770,0.036720,0.999231
08876,8.843645,-1.297161,4.004526,0.016279,0.030947,-0.018419,-0.062890,0.011822,-0.033367,0.397792,-0.356201,-0.785834,0.088437,-0.012974,0.040044,1.000000,-0.000314,0.000059,-0.000167,0.999745,-0.018273,0.007110,0.011205,-2.085005,0.838060,1.269050,0.999648,0.022145,-0.014626,-0.022665,0.999081,-0.036378,0.013807,0.036697,0.999231
08877,8.885084,-1.320989,4.040294,-0.002195,0.017610,0.036851,-0.066018,0.007357,-0.032764,0.401429,-0.352679,-0.785354,0.088850,-0.013211,0.040404,1.000000,-0.000330,0.000037,-0.000164,0.999749,-0.018273,0.007096,0.010848,-2.085226,0.835672,1.228194,0.999664,0.021432,-0.014585,-0.021951,0.999097,-0.036382,0.013792,0.036690,0.999232
08878,8.873239,-1.311188,3.993716,0.035406,0.016084,0.005757,-0.066002,0.007375,-0.032747,0.397335,-0.351139,-0.778909,0.088732,-0.013113,0.039938,1.000000,-0.000330,0.000037,-0.000164,0.999753,-0.018277,0.007087,0.010491,-2.086076,0.833890,1.187212,0.999679,0.020717,-0.014554,-0.021235,0.999112,-0.036397,0.013787,0.036694,0.999231
08879,8.873322,-1.310820,3.993654,0.035382,0.016369,0.005757,-0.066697,0.010824,-0.035259,0.397044,-0.349753,-0.785760,0.088733,-0.013111,0.039936,1.000000,-0.000333,0.000054,-0.000176,0.999757,-0.018267,0.007090,0.010119,-2.085139,0.833512,1.144636,0.999695,0.019974,-0.014547,-0.020492,0.999128,-0.036381,0.013808,0.036668,0.999232
08880,8.839891,-1.336081,4.048595,-0.032190,0.003112,0.001530,-0.065899,0.012705,-0.031327,0.397300,-0.347103,-0.781311,0.088399,-0.013361,0.040485,1.000000,-0.000329,0.000064,-0.000157,0.999760,-0.018272,0.007109,0.009762,-2.086035,0.834891,1.103625,0.999708,0.019259,-0.014571,-0.019778,0.999142,-0.036396,0.013858,0.036674,0.999231
08881,8.880087,-1.332639,3.987435,0.039498,-0.006054,0.012276,-0.060120,0.006852,-0.035218,0.394688,-0.351139,-0.784678,0.088800,-0.013330,0.039875,1.000000,-0.000301,0.000034,-0.000176,0.999764,-0.018256,0.007088,0.009424,-2.084571,0.831834,1.065039,0.999722,0.018585,-0.014518,-0.019103,0.999156,-0.036371,0.013830,0.036638,0.999233
08882,8.886165,-1.336464,4.010738,0.020697,-0.004790,0.027823,-0.058769,0.013969,-0.040799,0.401183,-0.348130,-0.783093,0.088862,-0.013371,0.040105,1.000000,-0.000294,0.000070,-0.000204,0.999768,-0.018204,0.007103,0.009079,-2.078791,0.832705,1.025490,0.999734,0.017895,-0.014533,-0.018413,0.999172,-0.036270,0.013872,0.036528,0.999236
08883,8.851441,-1.333645,3.969132,0.043195,-0.014036,-0.020927,-0.060778,0.016289,-0.039004,0.403125,-0.348643,-0.783983,0.088515,-0.013342,0.039688,1.000000,-0.000304,0.000081,-0.000195,0.999772,-0.018161,0.007124,0.008727,-2.074193,0.834369,0.985096,0.999746,0.017190,-0.014562,-0.017708,0.999188,-0.036190,0.013928,0.036438,0.999239
08884,8.837574,-1.287641,3.983062,0.034698,0.032577,-0.033973,-0.058563,0.023910,-0.035296,0.405779,-0.351569,-0.787350,0.088378,-0.012880,0.039824,1.000000,-0.000293,0.000120,-0.000176,0.999775,-0.018122,0.007193,0.008388,-2.069936,0.841547,0.946151,0.999756,0.016511,-0.014687,-0.017032,0.999202,-0.036115,0.014079,0.036357,0.999240
08885,8.775028,-1.315817,4.020084,-0.029036,0.010661,-0.071403,-0.058548,0.023927,-0.035280,0.402289,-0.349515,-0.774467,0.087753,-0.013162,0.040194,1.000000,-0.000293,0.000120,-0.000176,0.999778,-0.018084,0.007263,0.008037,-2.065743,0.848831,0.905842,0.999765,0.015808,-0.014814,-0.016333,0.999217,-0.036042,0.014233,0.036276,0.999240
08886,8.832685,-1.326227,4.029756,-0.013623,0.004242,-0.014017,-0.056861,0.023363,-0.038303,0.402464,-0.345993,-0.781531,0.088329,-0.013268,0.040291,1.000000,-0.000284,0.000117,-0.000192,0.999781,-0.018028,0.007327,0.007700,-2.059629,0.855317,0.867141,0.999774,0.015132,-0.014928,-0.015661,0.999231,-0.035936,0.014372,0.036161,0.999243
08887,8.832284,-1.324870,4.031082,-0.013576,0.004545,-0.014017,-0.053816,0.023259,-0.042942,0.401998,-0.348130,-0.781317,0.088325,-0.013257,0.040304,1.000000,-0.000269,0.000116,-0.000215,0.999785,-0.017944,0.007386,0.007361,-2.050275,0.861414,0.828310,0.999782,0.014455,-0.015034,-0.014985,0.999248,-0.035772,0.014506,0.035990,0.999247
08888,8.883069,-1.311999,4.047649,-0.002412,0.021272,0.036843,-0.047140,0.029845,-0.040132,0.406798,-0.349157,-0.781102,0.088834,-0.013128,0.040466,1.000000,-0.000236,0.000149,-0.000201,0.999788,-0.017854,0.007480,0.007061,-2.040070,0.871428,0.793764,0.999788,0.013852,-0.015209,-0.014386,0.999263,-0.035594,0.014704,0.035806,0.999251
08889,8.846026,-1.273330,4.066933,-0.025859,0.060131,0.006132,-0.048879,0.031809,-0.042440,0.404406,-0.346507,-0.782422,0.088464,-0.012742,0.040658,1.000000,-0.000244,0.000159,-0.000212,0.999791,-0.017754,0.007582,0.006738,-2.028794,0.882376,0.756667,0.999794,0.013204,-0.015400,-0.013743,0.999279,-0.035398,0.014921,0.035602,0.999255
08890,8.816696,-1.275350,4.049786,-0.022040,0.051797,-0.027073,-0.053549,0.025855,-0.030775,0.403562,-0.342015,-0.782035,0.088170,-0.012756,0.040490,1.000000,-0.000268,0.000129,-0.000154,0.999793,-0.017722,0.007666,0.006430,-2.025370,0.891398,0.721218,0.999800,0.012586,-0.015557,-0.013129,0.999289,-0.035338,0.015101,0.035535,0.999254
08891,8.773774,-1.233057,4.045273,-0.026747,0.089852,-0.073335,-0.054225,0.022650,-0.029317,0.403381,-0.345993,-0.779534,0.087741,-0.012332,0.040446,1.000000,-0.000271,0.000113,-0.000147,0.999795,-0.017707,0.007736,0.006113,-2.023912,0.898689,0.684756,0.999806,0.011949,-0.015684,-0.012497,0.999298,-0.035312,0.015251,0.035501,0.999253
08892,8.763540,-1.268508,4.066826,-0.056280,0.060240,-0.068919,-0.060432,0.012997,-0.025491,0.410412,-0.344068,-0.787596,0.087636,-0.012684,0.040666,1.000000,-0.000302,0.000065,-0.000127,0.999796,-0.017726,0.007763,0.005792,-2.026403,0.901203,0.647897,0.999812,0.011306,-0.015728,-0.011857,0.999304,-0.035356,0.015318,0.035536,0.999251
08893,8.798896,-1.288162,4.079478,-0.055830,0.046200,-0.029190,-0.062149,0.008295,-0.023847,0.405851,-0.344665,-0.780937,0.087989,-0.012879,0.040795,1.000000,-0.000311,0.000041,-0.000119,0.999797,-0.017766,0.007771,0.005455,-2.031287,0.901413,0.609202,0.999820,0.010631,-0.015732,-0.011183,0.999309,-0.035441,0.015344,0.035610,0.999248
08894,8.771355,-1.309279,4.030223,-0.028955,0.013790,-0.071407,-0.064277,0.000027,-0.024867,0.403729,-0.348130,-0.777545,0.087712,-0.013091,0.040306,1.000000,-0.000321,0.000000,-0.000124,0.999798,-0.017810,0.007736,0.005125,-2.036604,0.896742,0.571464,0.999828,0.009973,-0.015650,-0.010524,0.999313,-0.035534,0.015285,0.035692,0.999246
08895,8.755025,-1.322808,4.056493,-0.062721,0.007301,-0.073517,-0.060800,-0.003174,-0.022898,0.408709,-0.345178,-0.779830,0.087548,-0.013226,0.040570,1.000000,-0.000304,-0.000016,-0.000114,0.999799,-0.017858,0.007688,0.004811,-2.042355,0.890727,0.535549,0.999835,0.009346,-0.015545,-0.009895,0.999316,-0.035634,0.015202,0.035782,0.999244
08896,8.772336,-1.310026,4.027845,-0.028935,0.014435,-0.071408,-0.062963,-0.010749,-0.026601,0.403306,-0.344665,-0.786484,0.087719,-0.013099,0.040287,1.000000,-0.000315,-0.000054,-0.000133,0.999801,-0.017902,0.007599,0.004490,-2.047766,0.879850,0.498917,0.999844,0.008707,-0.015356,-0.009251,0.999319,-0.035728,0.015034,0.035865,0.999244
08897,8.801691,-1.307010,4.045247,-0.032769,0.023495,-0.038208,-0.056363,-0.009463,-0.025197,0.400523,-0.345480,-0.780640,0.088013,-0.013070,0.040460,1.000000,-0.000282,-0.000047,-0.000126,0.999802,-0.017940,0.007517,0.004191,-2.052425,0.869909,0.464814,0.999852,0.008112,-0.015182,-0.008651,0.999321,-0.035810,0.014881,0.035936,0.999243
08898,8.809412,-1.329649,4.036747,-0.028513,0.000689,-0.031674,-0.060514,-0.015435,-0.024436,0.402254,-0.345480,-0.776868,0.088089,-0.013295,0.040378,1.000000,-0.000303,-0.000077,-0.000122,0.999803,-0.017994,0.007408,0.003889,-2.058871,0.856779,0.430306,0.999860,0.007509,-0.014953,-0.008043,0.999322,-0.035922,0.014673,0.036038,0.999243
08899,8.820080,-1.294278,4.014179,0.000943,0.030928,-0.036101,-0.055630,-0.012890,-0.022671,0.403940,-0.348643,-0.782208,0.088197,-0.012942,0.040151,1.000000,-0.000278,-0.000064,-0.000113,0.999804,-0.018040,0.007310,0.003613,-2.064487,0.844947,0.398833,0.999867,0.006960,-0.014747,-0.007488,0.999323,-0.036020,0.014486,0.036126,0.999242
08900,8.840749,-1.344452,4.021927,-0.009347,-0.014076,-0.007484,-0.055986,-0.017132,-0.022650,0.403874,-0.340116,-0.782447,0.088403,-0.013443,0.040231,1.000000,-0.000280,-0.000086,-0.000113,0.999805,-0.018094,0.007194,0.003335,-2.070904,0.831207,0.367219,0.999874,0.006408,-0.014507,-0.006929,0.999323,-0.036132,0.014265,0.036228,0.999242
08901,8.841677,-1.344699,4.019804,-0.009404,-0.013723,-0.007484,-0.049711,-0.014822,-0.019827,0.406348,-0.347020,-0.783313,0.088412,-0.013446,0.040208,1.000000,-0.000249,-0.000074,-0.000099,0.999805,-0.018145,0.007091,0.003086,-2.077034,0.818911,0.338876,0.999880,0.005914,-0.014292,-0.006429,0.999322,-0.036239,0.014068,0.036327,0.999241
08902,8.819925,-1.353095,4.021846,-0.024380,-0.021136,-0.025137,-0.046595,-0.016306,-0.019123,0.405292,-0.342015,-0.778263,0.088195,-0.013530,0.040229,1.000000,-0.000233,-0.000082,-0.000096,0.999806,-0.018194,0.006985,0.002858,-2.082800,0.806301,0.312892,0.999886,0.005460,-0.014072,-0.005969,0.999322,-0.036340,0.013864,0.036420,0.999240
08903,8.844427,-1.362352,3.985871,0.013682,-0.037148,-0.016490,-0.040729,-0.017558,-0.018974,0.403772,-0.342528,-0.786698,0.088439,-0.013624,0.039869,1.000000,-0.000204,-0.000088,-0.000095,0.999807,-0.018230,0.006875,0.002651,-2.087221,0.793240,0.289348,0.999891,0.005050,-0.013844,-0.005551,0.999321,-0.036417,0.013651,0.036490,0.999241
08904,8.815827,-1.348037,3.994571,-0.005549,-0.021428,-0.040681,-0.033788,-0.018015,-0.016339,0.399678,-0.340988,-0.780253,0.088154,-0.013481,0.039956,1.000000,-0.000169,-0.000090,-0.000082,0.999807,-0.018266,0.006765,0.002487,-2.091430,0.780317,0.270795,0.999896,0.004726,-0.013619,-0.005220,0.999320,-0.036491,0.013437,0.036558,0.999241
08905,8.845470,-1.344910,4.011379,-0.009500,-0.012340,-0.007482,-0.028569,-0.023194,-0.012087,0.407234,-0.342528,-0.779154,0.088449,-0.013449,0.040126,1.000000,-0.000143,-0.000116,-0.000060,0.999807,-0.018318,0.006629,0.002357,-2.097557,0.764446,0.256135,0.999901,0.004470,-0.013342,-0.004956,0.999318,-0.036598,0.013169,0.036660,0.999241
08906,8.892684,-1.345864,3.971104,0.043524,-0.020579,0.018820,-0.026489,-0.020198,-0.012456,0.400237,-0.343638,-0.782927,0.088922,-0.013459,0.039722,1.000000,-0.000132,-0.000101,-0.000062,0.999808,-0.018357,0.006514,0.002235,-2.102180,0.751001,0.242432,0.999905,0.004231,-0.013107,-0.004709,0.999316,-0.036679,0.012943,0.036737,0.999241
08907,8.875964,-1.341881,4.026286,-0.013342,-0.002996,0.025716,-0.019823,-0.014351,-0.006978,0.404791,-0.340116,-0.780450,0.088756,-0.013418,0.040271,1.000000,-0.000099,-0.000072,-0.000035,0.999808,-0.018400,0.006433,0.002149,-2.107183,0.741534,0.232612,0.999908,0.004059,-0.012942,-0.004533,0.999314,-0.036766,0.012784,0.036821,0.999240
08908,8.863847,-1.314549,4.008070,0.001207,0.019534,0.003629,-0.018114,-0.021592,-0.006093,0.406529,-0.343042,-0.785814,0.088634,-0.013145,0.040091,1.000000,-0.000091,-0.000108,-0.000030,0.999808,-0.018451,0.006319,0.002079,-2.113115,0.728379,0.224823,0.999911,0.003924,-0.012712,-0.004390,0.999310,-0.036869,0.012559,0.036922,0.999239
08909,8.888288,-1.323956,3.972027,0.039250,0.003602,0.012279,-0.015640,-0.021029,-0.002544,0.401933,-0.339602,-0.781556,0.088879,-0.013238,0.039731,1.000000,-0.000078,-0.000105,-0.000013,0.999807,-0.018515,0.006213,0.002018,-2.120461,0.716079,0.218006,0.999915,0.003805,-0.012498,-0.004265,0.999306,-0.036998,0.012348,0.037048,0.999237
08910,8.917682,-1.321441,3.989175,0.035432,0.012624,0.045475,-0.014157,-0.016682,0.002615,0.404441,-0.350542,-0.780021,0.089174,-0.013210,0.039900,1.000000,-0.000071,-0.000083,0.000013,0.999806,-0.018591,0.006134,0.001981,-2.129210,0.706961,0.213882,0.999917,0.003733,-0.012338,-0.004189,0.999301,-0.037150,0.012191,0.037199,0.999234
08911,8.904399,-1.277474,4.001175,0.026900,0.059136,0.032385,-0.016542,-0.012663,0.003169,0.403874,-0.340116,-0.782447,0.089042,-0.012770,0.040018,1.000000,-0.000083,-0.000063,0.000016,0.999805,-0.018666,0.006074,0.001931,-2.137834,0.700004,0.208312,0.999919,0.003635,-0.012217,-0.004089,0.999296,-0.037301,0.012073,0.037348,0.999229
08912,8.918489,-1.323427,3.986712,0.035424,0.013208,0.045474,-0.016093,-0.003833,0.007264,0.402645,-0.342015,-0.784032,0.089185,-0.013228,0.039870,1.000000,-0.000080,-0.000019,0.000036,0.999804,-0.018753,0.006062,0.001888,-2.147846,0.698637,0.203256,0.999919,0.003547,-0.012193,-0.004002,0.999290,-0.037475,0.012052,0.037521,0.999223
08913,8.911552,-1.302451,3.993056,0.031115,0.036720,0.038927,-0.021227,-0.000047,0.008375,0.406529,-0.343042,-0.785814,0.089116,-0.013017,0.039932,1.000000,-0.000106,-0.000000,0.000042,0.999802,-0.018854,0.006068,0.001815,-2.159486,0.699114,0.194902,0.999920,0.003401,-0.012202,-0.003859,0.999282,-0.037678,0.012065,0.037722,0.999215
08914,8.859170,-1.297970,4.007976,-0.003098,0.044675,-0.002923,-0.022616,0.006170,0.006069,0.403562,-0.342015,-0.782035,0.088593,-0.012972,0.040078,1.000000,-0.000113,0.000031,0.000030,0.999801,-0.018939,0.006103,0.001734,-2.169290,0.702994,0.185412,0.999919,0.003236,-0.012269,-0.003698,0.999277,-0.037849,0.012138,0.037892,0.999208
08915,8.849948,-1.352702,3.998863,-0.009562,-0.009009,-0.007479,-0.029101,0.009491,0.008799,0.406529,-0.343042,-0.785814,0.088502,-0.013517,0.039986,1.000000,-0.000146,0.000047,0.000044,0.999798,-0.019046,0.006157,0.001620,-2.181658,0.708902,0.172141,0.999919,0.003004,-0.012372,-0.003473,0.999269,-0.038065,0.012249,0.038105,0.999199
08916,8.790468,-1.326004,4.020889,-0.048036,0.022069,-0.055876,-0.029543,0.006648,0.003456,0.403664,-0.339602,-0.777784,0.087906,-0.013253,0.040208,1.000000,-0.000148,0.000033,0.000017,0.999797,-0.019134,0.006190,0.001501,-2.191790,0.712532,0.158414,0.999919,0.002765,-0.012436,-0.003238,0.999263,-0.038242,0.012321,0.038279,0.999191
08917,8.784170,-1.322349,3.997915,-0.029217,0.021456,-0.071421,-0.033366,0.005627,0.001529,0.402645,-0.342015,-0.784032,0.087843,-0.013216,0.039979,1.000000,-0.000167,0.000028,0.000008,0.999795,-0.019222,0.006217,0.001356,-2.201977,0.715312,0.141623,0.999919,0.002472,-0.012484,-0.002950,0.999257,-0.038419,0.012380,0.038453,0.999184
08918,8.784877,-1.341019,3.967965,-0.006146,-0.002280,-0.080416,-0.035477,0.003346,-0.000769,0.399643,-0.336953,-0.782654,0.087849,-0.013403,0.039681,1.000000,-0.000177,0.000017,-0.000004,0.999793,-0.019307,0.006230,0.001203,-2.211839,0.716385,0.124102,0.999919,0.002166,-0.012503,-0.002647,0.999252,-0.038591,0.012410,0.038621,0.999177
08919,8.796873,-1.352580,4.013809,-0.043873,-0.000027,-0.049328,-0.034483,-0.000434,-0.002381,0.407793,-0.345178,-0.781828,0.087968,-0.013520,0.040141,1.000000,-0.000172,-0.000002,-0.000012,0.999792,-0.019390,0.006215,0.001055,-2.221390,0.714400,0.107050,0.999921,0.001868,-0.012468,-0.002350,0.999246,-0.038758,0.012387,0.038784,0.999171
08920,8.848361,-1.341971,4.028093,-0.032716,0.016763,0.001515,-0.037119,-0.004148,-0.015374,0.405257,-0.337979,-0.780664,0.088482,-0.013419,0.040285,1.000000,-0.000186,-0.000021,-0.000077,0.999792,-0.019422,0.006173,0.000870,-2.225204,0.709194,0.085939,0.999922,0.001500,-0.012377,-0.001979,0.999244,-0.038824,0.012310,0.038846,0.999169
08921,8.796536,-1.336115,4.042236,-0.066876,0.024651,-0.040336,-0.036078,-0.002648,-0.015555,0.405037,-0.344665,-0.782712,0.087964,-0.013361,0.040426,1.000000,-0.000180,-0.000013,-0.000078,0.999792,-0.019447,0.006141,0.000682,-2.228197,0.705118,0.064454,0.999924,0.001125,-0.012306,-0.001603,0.999243,-0.038877,0.012253,0.038893,0.999168
08922,8.755504,-1.311321,4.005830,-0.048507,0.038471,-0.095628,-0.036245,-0.011785,-0.023761,0.404120,-0.344665,-0.784709,0.087551,-0.013116,0.040066,1.000000,-0.000181,-0.000059,-0.000119,0.999792,-0.019448,0.006052,0.000489,-2.228490,0.694495,0.042486,0.999926,0.000741,-0.012121,-0.001212,0.999243,-0.038882,0.012083,0.038894,0.999170
08923,8.750543,-1.305832,3.980516,-0.029730,0.037746,-0.111173,-0.043809,-0.027196,-0.019782,0.401831,-0.342015,-0.785807,0.087499,-0.013058,0.039820,1.000000,-0.000219,-0.000136,-0.000099,0.999793,-0.019493,0.005891,0.000278,-2.233811,0.675555,0.018705,0.999930,0.000326,-0.011790,-0.000786,0.999240,-0.038975,0.011769,0.038981,0.999171
08924,8.790314,-1.267193,3.975975,-0.004036,0.076731,-0.082432,-0.049293,-0.033631,-0.017412,0.398727,-0.336953,-0.784651,0.087895,-0.012670,0.039778,1.000000,-0.000246,-0.000168,-0.000087,0.999792,-0.019573,0.005703,0.000051,-2.243123,0.653456,-0.006915,0.999935,-0.000121,-0.011405,-0.000326,0.999234,-0.039137,0.011401,0.039139,0.999169
08925,8.811904,-1.317933,3.981318,-0.014473,0.031773,-0.053780,-0.057158,-0.042027,-0.013235,0.400448,-0.344151,-0.787590,0.088110,-0.013174,0.039835,1.000000,-0.000286,-0.000210,-0.000066,0.999791,-0.019698,0.005469,-0.000195,-2.257639,0.626128,-0.034679,0.999940,-0.000605,-0.010928,0.000174,0.999224,-0.039391,0.010943,0.039386,0.999164
08926,8.837313,-1.328174,3.942592,0.023579,0.015806,-0.045120,-0.058810,-0.047438,-0.008933,0.403772,-0.342528,-0.786698,0.088363,-0.013274,0.039451,1.000000,-0.000294,-0.000237,-0.000045,0.999789,-0.019850,0.005223,-0.000440,-2.275196,0.597377,-0.062242,0.999945,-0.001086,-0.010426,0.000672,0.999212,-0.039697,0.010461,0.039688,0.999157
08927,8.917486,-1.390720,3.954782,0.028609,-0.035914,0.040934,-0.060903,-0.049696,-0.011214,0.399991,-0.339089,-0.780665,0.089164,-0.013900,0.039574,1.000000,-0.000305,-0.000248,-0.000056,0.999788,-0.019995,0.004957,-0.000694,-2.291886,0.566278,-0.090879,0.999950,-0.001586,-0.009883,0.001190,0.999199,-0.039988,0.009939,0.039975,0.999151
08928,8.927048,-1.431816,3.913279,0.055956,-0.082769,0.038508,-0.054876,-0.035846,-0.004105,0.405468,-0.338493,-0.785327,0.089263,-0.014309,0.039153,1.000000,-0.000274,-0.000179,-0.000021,0.999785,-0.020148,0.004773,-0.000918,-2.309488,0.544710,-0.116188,0.999953,-0.002028,-0.009507,0.001643,0.999186,-0.040295,0.009581,0.040278,0.999143
08929,8.928536,-1.433546,3.909249,0.055932,-0.082470,0.038511,-0.053154,-0.037094,-0.004470,0.399357,-0.335111,-0.784941,0.089278,-0.014327,0.039113,1.000000,-0.000266,-0.000185,-0.000022,0.999783,-0.020295,0.004581,-0.001135,-2.326408,0.522233,-0.140713,0.999955,-0.002456,-0.009115,0.002084,0.999174,-0.040591,0.009207,0.040570,0.999134
08930,8.930651,-1.452087,3.875779,0.079014,-0.106197,0.029530,-0.044882,-0.025141,-0.005953,0.402610,-0.337979,-0.786433,0.089301,-0.014515,0.038772,1.000000,-0.000224,-0.000126,-0.000030,0.999781,-0.020407,0.004448,-0.001324,-2.339330,0.506532,-0.162068,0.999957,-0.002829,-0.008841,0.002465,0.999164,-0.040816,0.008949,0.040793,0.999128
08931,8.959512,-1.433321,3.921993,0.052013,-0.073057,0.071707,-0.045867,-0.021357,-0.004320,0.401694,-0.337979,-0.788430,0.089591,-0.014326,0.039233,1.000000,-0.000229,-0.000107,-0.000022,0.999779,-0.020526,0.004330,-0.001516,-2.353033,0.492495,-0.183925,0.999958,-0.003210,-0.008596,0.002854,0.999153,-0.041055,0.008720,0.041029,0.999120
08932,8.980906,-1.501755,3.899137,0.064832,-0.142095,0.091393,-0.037875,-0.009104,-0.001704,0.403839,-0.336080,-0.784848,0.089807,-0.015011,0.038998,1.000000,-0.000189,-0.000046,-0.000009,0.999777,-0.020624,0.004280,-0.001674,-2.364443,0.486433,-0.201926,0.999958,-0.003524,-0.008490,0.003171,0.999144,-0.041254,0.008628,0.041225,0.999113
08933,8.990644,-1.467110,3.878133,0.094284,-0.111790,0.086940,-0.033704,0.002136,-0.001006,0.400383,-0.335624,-0.787829,0.089907,-0.014665,0.038783,1.000000,-0.000169,0.000011,-0.000005,0.999775,-0.020706,0.004283,-0.001821,-2.373871,0.486401,-0.218851,0.999957,-0.003820,-0.008489,0.003465,0.999136,-0.041419,0.008640,0.041387,0.999106
08934,8.951394,-1.489971,3.909290,0.045543,-0.126060,0.067194,-0.030651,0.007329,-0.004234,0.403629,-0.335567,-0.780185,0.089515,-0.014896,0.039092,1.000000,-0.000153,0.000037,-0.000021,0.999773,-0.020761,0.004311,-0.001961,-2.380258,0.489235,-0.234961,0.999955,-0.004101,-0.008539,0.003743,0.999130,-0.041530,0.008702,0.041496,0.999101
08935,8.916242,-1.488411,3.867794,0.068133,-0.135373,0.018467,-0.020950,0.012331,-0.000771,0.404552,-0.338493,-0.787324,0.089165,-0.014880,0.038674,1.000000,-0.000105,0.000062,-0.000004,0.999772,-0.020806,0.004365,-0.002055,-2.385435,0.495230,-0.245793,0.999953,-0.004290,-0.008643,0.003926,0.999126,-0.041620,0.008814,0.041584,0.999096
08936,8.856855,-1.460518,3.890597,0.029654,-0.104340,-0.029949,-0.018382,0.009440,-0.010792,0.401299,-0.335624,-0.785832,0.088570,-0.014606,0.038903,1.000000,-0.000092,0.000047,-0.000054,0.999772,-0.020804,0.004396,-0.002153,-2.385274,0.498557,-0.257173,0.999952,-0.004488,-0.008701,0.004122,0.999125,-0.041617,0.008881,0.041579,0.999096
08937,8.820219,-1.423821,3.909174,0.006075,-0.065552,-0.060722,-0.016672,0.008179,-0.011172,0.404487,-0.329965,-0.787563,0.088203,-0.014240,0.039089,1.000000,-0.000083,0.000041,-0.000056,0.999771,-0.020797,0.004418,-0.002246,-2.384567,0.500751,-0.267842,0.999951,-0.004675,-0.008740,0.004307,0.999125,-0.041605,0.008926,0.041565,0.999096
08938,8.849749,-1.437519,3.898243,0.025331,-0.080566,-0.036508,-0.011855,-0.000570,-0.009658,0.404266,-0.336651,-0.789611,0.088497,-0.014377,0.038984,1.000000,-0.000059,-0.000003,-0.000048,0.999771,-0.020797,0.004402,-0.002307,-2.384601,0.498835,-0.274778,0.999951,-0.004796,-0.008706,0.004429,0.999124,-0.041606,0.008898,0.041565,0.999096
08939,8.843058,-1.414831,3.904827,0.020995,-0.057001,-0.043071,-0.009424,-0.005301,-0.007565,0.403060,-0.340116,-0.784222,0.088429,-0.014150,0.039051,1.000000,-0.000047,-0.000027,-0.000038,0.999771,-0.020812,0.004363,-0.002358,-2.386311,0.494219,-0.280603,0.999951,-0.004897,-0.008626,0.004534,0.999123,-0.041635,0.008822,0.041594,0.999096
08940,8.872216,-1.411433,3.922911,0.017173,-0.047949,-0.009882,-0.009145,-0.011586,-0.010442,0.403060,-0.340116,-0.784222,0.088719,-0.014117,0.039235,1.000000,-0.000046,-0.000058,-0.000052,0.999771,-0.020815,0.004293,-0.002402,-2.386621,0.486142,-0.285436,0.999952,-0.004982,-0.008485,0.004624,0.999122,-0.041641,0.008685,0.041600,0.999097
08941,8.872847,-1.410717,3.921740,0.017154,-0.047750,-0.009881,-0.006088,-0.012374,-0.012443,0.407591,-0.335028,-0.788719,0.088725,-0.014111,0.039223,1.000000,-0.000030,-0.000062,-0.000062,0.999772,-0.020796,0.004216,-0.002433,-2.384484,0.477240,-0.288770,0.999953,-0.005040,-0.008329,0.004689,0.999123,-0.041604,0.008532,0.041563,0.999099
08942,8.837945,-1.390626,3.908382,0.016721,-0.033014,-0.049635,-0.005002,-0.017579,-0.008732,0.401664,-0.333487,-0.786268,0.088375,-0.013909,0.039092,1.000000,-0.000025,-0.000088,-0.000044,0.999772,-0.020804,0.004120,-0.002451,-2.385373,0.466176,-0.290587,0.999954,-0.005072,-0.008136,0.004729,0.999122,-0.041619,0.008340,0.041579,0.999100
08943,8.881366,-1.431643,3.911655,0.021410,-0.070139,-0.003307,-0.007470,-0.018110,-0.012265,0.400383,-0.335624,-0.787829,0.088809,-0.014320,0.039125,1.000000,-0.000037,-0.000091,-0.000061,0.999772,-0.020806,0.004015,-0.002495,-2.385519,0.454034,-0.295377,0.999955,-0.005155,-0.007924,0.004821,0.999122,-0.041622,0.008132,0.041582,0.999102
08944,8.875250,-1.408592,3.917064,0.017145,-0.046684,-0.009876,-0.003969,-0.016084,-0.008916,0.401664,-0.333487,-0.786268,0.088749,-0.014089,0.039178,1.000000,-0.000020,-0.000080,-0.000045,0.999773,-0.020809,0.003926,-0.002509,-2.385883,0.443795,-0.296816,0.999957,-0.005180,-0.007746,0.004853,0.999121,-0.041628,0.007954,0.041589,0.999103
08945,8.869926,-1.402226,3.892605,0.035840,-0.047241,-0.025416,-0.002396,-0.015195,-0.017307,0.400638,-0.332974,-0.783380,0.088695,-0.014029,0.038933,1.000000,-0.000012,-0.000076,-0.000087,0.999774,-0.020774,0.003825,-0.002535,-2.381802,0.432183,-0.299535,0.999958,-0.005228,-0.007543,0.004910,0.999124,-0.041557,0.007754,0.041518,0.999108
08946,8.912548,-1.425424,3.926174,0.017489,-0.060363,0.029886,-0.005180,-0.014707,-0.019405,0.396785,-0.336439,-0.783760,0.089121,-0.014262,0.039269,1.000000,-0.000026,-0.000074,-0.000097,0.999775,-0.020732,0.003730,-0.002577,-2.376999,0.421176,-0.304090,0.999959,-0.005307,-0.007351,0.004998,0.999127,-0.041473,0.007565,0.041435,0.999113
08947,8.907164,-1.418438,3.902062,0.036182,-0.060964,0.014346,-0.002450,-0.008494,-0.021200,0.401585,-0.337466,-0.783545,0.089068,-0.014193,0.039025,1.000000,-0.000012,-0.000042,-0.000106,0.999776,-0.020670,0.003656,-0.002610,-2.369889,0.412703,-0.307640,0.999960,-0.005369,-0.007203,0.005067,0.999132,-0.041349,0.007419,0.041311,0.999119
08948,8.862641,-1.432904,3.909551,0.006250,-0.076202,-0.020938,-0.003979,-0.006098,-0.030255,0.403839,-0.336080,-0.784848,0.088623,-0.014342,0.039099,1.000000,-0.000020,-0.000030,-0.000151,0.999778,-0.020568,0.003590,-0.002673,-2.358274,0.404940,-0.314710,0.999960,-0.005493,-0.007067,0.005197,0.999140,-0.041147,0.007287,0.041109,0.999128
08949,8.850282,-1.402413,3.892922,0.020773,-0.053733,-0.043052,0.000744,-0.007424,-0.035307,0.402610,-0.337979,-0.786433,0.088499,-0.014040,0.038932,1.000000,0.000004,-0.000037,-0.000177,0.999781,-0.020434,0.003510,-0.002726,-2.342866,0.395743,-0.320590,0.999960,-0.005595,-0.006907,0.005308,0.999150,-0.040878,0.007130,0.040840,0.999140
08950,8.858152,-1.421363,3.885059,0.025062,-0.076519,-0.036475,-0.002114,-0.011479,-0.041513,0.403241,-0.336137,-0.786723,0.088576,-0.014232,0.038856,1.000000,-0.000011,-0.000057,-0.000208,0.999785,-0.020285,0.003404,-0.002801,-2.325766,0.383428,-0.328824,0.999961,-0.005739,-0.006692,0.005463,0.999161,-0.040580,0.006919,0.040542,0.999154
08951,8.823530,-1.398187,3.872127,0.024589,-0.061810,-0.076233,-0.000490,-0.011296,-0.047227,0.399176,-0.339089,-0.782440,0.088230,-0.014003,0.038726,1.000000,-0.000002,-0.000056,-0.000236,0.999788,-0.020106,0.003289,-0.002883,-2.305279,0.370212,-0.337938,0.999962,-0.005898,-0.006461,0.005633,0.999175,-0.040223,0.006693,0.040185,0.999170
08952,8.845650,-1.351486,3.926902,-0.006601,-0.005569,-0.040660,-0.001950,-0.015589,-0.052378,0.402814,-0.335567,-0.781960,0.088450,-0.013538,0.039276,1.000000,-0.000010,-0.000078,-0.000262,0.999792,-0.019913,0.003150,-0.002977,-2.283147,0.354073,-0.348237,0.999962,-0.006078,-0.006180,0.005827,0.999189,-0.039837,0.006417,0.039800,0.999187
08953,8.864360,-1.350078,3.868059,0.050247,-0.022505,-0.047523,-0.004434,-0.021372,-0.057339,0.397445,-0.339089,-0.786212,0.088636,-0.013525,0.038690,1.000000,-0.000022,-0.000107,-0.000287,0.999797,-0.019707,0.002975,-0.003087,-2.259451,0.333849,-0.360395,0.999963,-0.006290,-0.005827,0.006055,0.999204,-0.039424,0.006070,0.039387,0.999206
08954,8.894740,-1.342076,3.884895,0.046421,-0.013438,-0.014339,-0.003739,-0.024110,-0.057523,0.400383,-0.335624,-0.787829,0.088939,-0.013446,0.038860,1.000000,-0.000019,-0.000121,-0.000288,0.999801,-0.019504,0.002787,-0.003194,-2.236179,0.312222,-0.372144,0.999964,-0.006495,-0.005449,0.006278,0.999219,-0.039018,0.005698,0.038983,0.999224
08955,8.932085,-1.356348,3.894814,0.046738,-0.027477,0.025425,-0.006490,-0.018354,-0.058167,0.395684,-0.334597,-0.787822,0.089313,-0.013588,0.038957,1.000000,-0.000032,-0.000092,-0.000291,0.999805,-0.019299,0.002620,-0.003316,-2.212595,0.292838,-0.385693,0.999964,-0.006731,-0.005111,0.006529,0.999233,-0.038607,0.005367,0.038572,0.999241
08956,8.972437,-1.329566,3.861889,0.095490,-0.012492,0.045167,-0.005681,-0.017275,-0.051580,0.407591,-0.335028,-0.788719,0.089718,-0.013318,0.038627,1.000000,-0.000028,-0.000086,-0.000258,0.999808,-0.019119,0.002473,-0.003423,-2.191958,0.275820,-0.397648,0.999964,-0.006940,-0.004814,0.006751,0.999246,-0.038247,0.005076,0.038213,0.999257
08957,8.950252,-1.316640,3.894738,0.057364,0.004214,0.036487,-0.003235,-0.010754,-0.049272,0.401329,-0.340116,-0.787994,0.089497,-0.013188,0.038952,1.000000,-0.000016,-0.000054,-0.000246,0.999812,-0.018942,0.002357,-0.003527,-2.171717,0.262341,-0.409179,0.999964,-0.007141,-0.004579,0.006963,0.999258,-0.037894,0.004846,0.037861,0.999271
08958,8.917196,-1.327211,3.821901,0.103102,-0.029184,-0.021195,-0.002522,-0.008237,-0.048021,0.397445,-0.339089,-0.786212,0.089167,-0.013293,0.038223,1.000000,-0.000013,-0.000041,-0.000240,0.999815,-0.018762,0.002258,-0.003618,-2.151014,0.250912,-0.419389,0.999964,-0.007320,-0.004379,0.007150,0.999270,-0.037533,0.004651,0.037500,0.999286
08959,8.911082,-1.300875,3.828134,0.098719,-0.005759,-0.027776,-0.001077,-0.009193,-0.044302,0.401329,-0.340116,-0.787994,0.089106,-0.013028,0.038286,1.000000,-0.000005,-0.000046,-0.000222,0.999818,-0.018594,0.002154,-0.003694,-2.131790,0.238882,-0.427766,0.999963,-0.007466,-0.004169,0.007306,0.999281,-0.037198,0.004444,0.037166,0.999299
08960,8.934533,-1.288678,3.823139,0.113695,0.002376,-0.010136,0.001759,-0.010391,-0.039538,0.401329,-0.340116,-0.787994,0.089341,-0.012905,0.038236,1.000000,0.000009,-0.000052,-0.000198,0.999821,-0.018445,0.002055,-0.003747,-2.114599,0.227555,-0.433663,0.999963,-0.007569,-0.003972,0.007417,0.999292,-0.036898,0.004248,0.036867,0.999311
08961,8.954894,-1.318118,3.861234,0.080313,-0.018541,0.027531,0.000096,-0.009853,-0.036485,0.403482,-0.341142,-0.793549,0.089545,-0.013198,0.038617,1.000000,0.000000,-0.000049,-0.000182,0.999823,-0.018310,0.001960,-0.003805,-2.099168,0.216558,-0.440107,0.999963,-0.007681,-0.003780,0.007538,0.999301,-0.036629,0.004058,0.036599,0.999322
08962,8.994591,-1.292469,3.829137,0.129063,-0.003544,0.047271,0.005578,-0.009366,-0.037624,0.398471,-0.339602,-0.789101,0.089942,-0.012943,0.038295,1.000000,0.000028,-0.000047,-0.000188,0.999826,-0.018160,0.001869,-0.003838,-2.081899,0.206148,-0.443666,0.999964,-0.007743,-0.003598,0.007608,0.999311,-0.036328,0.003877,0.036299,0.999333
08963,8.972744,-1.297668,3.832792,0.113986,-0.010982,0.029632,0.004994,-0.002802,-0.030658,0.402144,-0.340116,-0.786219,0.089725,-0.012991,0.038329,1.000000,0.000025,-0.000014,-0.000153,0.999828,-0.018036,0.001813,-0.003868,-2.067629,0.199679,-0.446908,0.999964,-0.007800,-0.003485,0.007669,0.999320,-0.036079,0.003764,0.036051,0.999343
08964,9.008140,-1.296859,3.874610,0.091350,-0.000958,0.078353,0.005698,-0.000291,-0.029414,0.399889,-0.341501,-0.784916,0.090079,-0.012983,0.038746,1.000000,0.000028,-0.000001,-0.000147,0.999830,-0.017911,0.001776,-0.003889,-2.053379,0.195475,-0.449232,0.999963,-0.007840,-0.003412,0.007713,0.999328,-0.035830,0.003690,0.035803,0.999352
08965,9.051305,-1.335323,3.879860,0.096062,-0.038150,0.124708,0.006365,0.008200,-0.029396,0.397947,-0.340988,-0.784025,0.090513,-0.013368,0.038794,1.000000,0.000032,0.000041,-0.000147,0.999833,-0.017774,0.001779,-0.003914,-2.037675,0.195822,-0.452101,0.999963,-0.007891,-0.003418,0.007764,0.999338,-0.035556,0.003696,0.035529,0.999362
08966,9.037725,-1.304839,3.865480,0.110590,-0.015636,0.102581,0.007695,0.025180,-0.029362,0.398973,-0.341501,-0.786913,0.090380,-0.013063,0.038643,1.000000,0.000038,0.000126,-0.000147,0.999835,-0.017619,0.001866,-0.003941,-2.019879,0.205793,-0.455299,0.999962,-0.007946,-0.003592,0.007815,0.999348,-0.035246,0.003869,0.035217,0.999372
08967,8.978697,-1.291352,3.860308,0.095079,-0.008776,0.045175,0.009423,0.029190,-0.028303,0.403983,-0.343042,-0.791361,0.089791,-0.012928,0.038589,1.000000,0.000047,0.000146,-0.000142,0.999838,-0.017457,0.001968,-0.003957,-2.001451,0.217573,-0.457340,0.999961,-0.007982,-0.003797,0.007845,0.999359,-0.034925,0.004074,0.034893,0.999383
08968,8.948250,-1.274524,3.874346,0.075833,0.006871,0.020946,0.004516,0.033388,-0.033903,0.401329,-0.340116,-0.787994,0.089487,-0.012761,0.038728,1.000000,0.000023,0.000167,-0.000170,0.999840,-0.017279,0.002089,-0.004012,-1.981130,0.231398,-0.463836,0.999959,-0.008095,-0.004039,0.007951,0.999371,-0.034570,0.004316,0.034537,0.999394
08969,8.872752,-1.274298,3.896763,0.026587,0.006914,-0.038560,0.006151,0.033592,-0.039604,0.402179,-0.344151,-0.783818,0.088732,-0.012762,0.038952,1.000000,0.000031,0.000168,-0.000198,0.999844,-0.017073,0.002201,-0.004078,-1.957584,0.244176,-0.471517,0.999957,-0.008229,-0.004262,0.008079,0.999384,-0.034159,0.004540,0.034123,0.999407
08970,8.871944,-1.270662,3.899790,0.026595,0.007249,-0.038560,0.006202,0.032876,-0.036933,0.401694,-0.337979,-0.788430,0.088723,-0.012724,0.038983,1.000000,0.000031,0.000164,-0.000185,0.999846,-0.016879,0.002316,-0.004131,-1.935390,0.257322,-0.477776,0.999955,-0.008339,-0.004491,0.008182,0.999396,-0.033772,0.004770,0.033734,0.999419
08971,8.951084,-1.252037,3.936404,0.033833,0.032897,0.045434,-0.002794,0.031086,-0.041786,0.406494,-0.339006,-0.788215,0.089514,-0.012539,0.039350,1.000000,-0.000014,0.000155,-0.000209,0.999849,-0.016684,0.002413,-0.004238,-1.913158,0.268315,-0.490159,0.999952,-0.008555,-0.004683,0.008394,0.999407,-0.033384,0.004966,0.033343,0.999432
08972,8.899084,-1.260270,3.924543,0.022714,0.016673,-0.005383,-0.004173,0.036593,-0.041386,0.401540,-0.340629,-0.792658,0.088995,-0.012620,0.039229,1.000000,-0.000021,0.000183,-0.000207,0.999851,-0.016488,0.002539,-0.004349,-1.890772,0.282720,-0.503098,0.999949,-0.008781,-0.004934,0.008613,0.999418,-0.032994,0.005221,0.032950,0.999443
08973,8.885822,-1.246217,3.881693,0.060252,0.015229,-0.036463,-0.005555,0.036843,-0.042424,0.407934,-0.337620,-0.791294,0.088863,-0.012480,0.038801,1.000000,-0.000028,0.000184,-0.000212,0.999854,-0.016296,0.002662,-0.004480,-1.868794,0.296613,-0.518246,0.999946,-0.009045,-0.005177,0.008871,0.999429,-0.032610,0.005469,0.032563,0.999455
08974,8.861421,-1.234333,3.918906,0.022197,0.031808,-0.045156,-0.009309,0.035106,-0.041662,0.403271,-0.340629,-0.788885,0.088619,-0.012360,0.039174,1.000000,-0.000047,0.000176,-0.000208,0.999856,-0.016111,0.002781,-0.004614,-1.847696,0.310077,-0.533801,0.999942,-0.009316,-0.005412,0.009137,0.999438,-0.032242,0.005709,0.032191,0.999465
08975,8.831878,-1.234213,3.903015,0.025988,0.023524,-0.078334,-0.013837,0.037572,-0.046025,0.403306,-0.344665,-0.786484,0.088323,-0.012360,0.039014,1.000000,-0.000069,0.000188,-0.000230,0.999858,-0.015920,0.002903,-0.004793,-1.826001,0.323877,-0.554485,0.999937,-0.009677,-0.005653,0.009492,0.999447,-0.031864,0.005958,0.031808,0.999476
