// General information: 
//  MT Manager version: 2020.5.0 
//  XDA version: 2020.5.0 build 5678 rev 108182 built on 2021-02-04
// Device information: 
//  DeviceId: 00B46A02
//  ProductCode: MTW2-3A7G6
//  Firmware Version: 4.4.0
//  Hardware Version: 2.0.0
// Device settings: 
//  Filter Profile: human(46.1)
//  Option Flags: Orientation Smoother Disabled, Position/Velocity Smoother Disabled, Continuous Zero Rotation Update Disabled, AHS Disabled, ICC Disabled
// Coordinate system: ENU
PacketCounter,Acc_X,Acc_Y,Acc_Z,FreeAcc_E,FreeAcc_N,FreeAcc_U,Gyr_X,Gyr_Y,Gyr_Z,Mag_X,Mag_Y,Mag_Z,VelInc_X,VelInc_Y,VelInc_Z,OriInc_q0,OriInc_q1,OriInc_q2,OriInc_q3,Quat_q0,Quat_q1,Quat_q2,Quat_q3,Roll,Pitch,Yaw,Mat[1][1],Mat[2][1],Mat[3][1],Mat[1][2],Mat[2][2],Mat[3][2],Mat[1][3],Mat[2][3],Mat[3][3]
08622,9.539129,-1.500465,-1.766530,0.039351,-0.088694,0.003503,0.012881,-0.002976,-0.000000,-0.042013,0.792206,-1.280648,0.095392,-0.015004,-0.017665,1.000000,0.000064,-0.000015,-0.000000,0.999983,-0.004051,-0.002825,0.002948,-0.465179,-0.322328,0.339120,0.999967,0.005919,0.005626,-0.005873,0.999950,-0.008119,-0.005673,0.008085,0.999951
08623,9.497427,-1.512347,-1.725190,0.050038,-0.051903,-0.042355,0.006965,0.001400,0.000944,-0.033188,0.786447,-1.275826,0.094974,-0.015122,-0.017253,1.000000,0.000035,0.000007,0.000005,0.999984,-0.004027,-0.002813,0.002955,-0.462424,-0.320983,0.339948,0.999967,0.005933,0.005602,-0.005888,0.999950,-0.008071,-0.005650,0.008037,0.999952
08624,9.558782,-1.524281,-1.694796,0.077178,-0.022248,0.013789,0.000647,0.013165,0.000681,-0.032438,0.784547,-1.273497,0.095587,-0.015242,-0.016954,1.000000,0.000003,0.000066,0.000003,0.999984,-0.003972,-0.002849,0.002878,-0.456111,-0.325128,0.331054,0.999967,0.005778,0.005675,-0.005733,0.999952,-0.007960,-0.005720,0.007928,0.999952
08625,9.508835,-1.595551,-1.778505,-0.042192,-0.032280,-0.008404,-0.009261,0.023307,-0.000014,-0.030931,0.786079,-1.278159,0.095086,-0.015956,-0.017795,1.000000,-0.000046,0.000117,-0.000000,0.999984,-0.003896,-0.002919,0.002789,-0.447416,-0.333205,0.320883,0.999967,0.005600,0.005815,-0.005555,0.999954,-0.007809,-0.005859,0.007776,0.999953
08626,9.567651,-1.613464,-1.823374,-0.072810,-0.052401,0.059488,-0.003981,0.028633,0.001137,-0.024626,0.793979,-1.273204,0.095674,-0.016134,-0.018247,1.000000,-0.000020,0.000143,0.000006,0.999985,-0.003791,-0.003003,0.002712,-0.435304,-0.342972,0.312047,0.999967,0.005446,0.005986,-0.005401,0.999957,-0.007597,-0.006027,0.007565,0.999953
08627,9.484721,-1.636785,-1.738301,-0.051673,0.021336,-0.032219,0.005120,0.025651,-0.001503,-0.030945,0.788844,-1.276896,0.094845,-0.016368,-0.017396,1.000000,0.000026,0.000128,-0.000008,0.999985,-0.003694,-0.003086,0.002692,-0.424312,-0.352542,0.309791,0.999966,0.005407,0.006153,-0.005361,0.999958,-0.007405,-0.006193,0.007372,0.999954
08628,9.501833,-1.565934,-1.742515,-0.003076,-0.033490,-0.026360,0.011202,0.016195,0.002062,-0.026528,0.787945,-1.277004,0.095017,-0.015657,-0.017434,1.000000,0.000056,0.000081,0.000010,0.999985,-0.003616,-0.003120,0.002732,-0.415318,-0.356390,0.314385,0.999966,0.005487,0.006220,-0.005442,0.999959,-0.007248,-0.006260,0.007214,0.999954
08629,9.513176,-1.589953,-1.692890,0.016773,0.016936,-0.020151,0.009277,0.014807,0.004642,-0.031989,0.785406,-1.273863,0.095131,-0.015897,-0.016937,1.000000,0.000046,0.000074,0.000023,0.999985,-0.003530,-0.003143,0.002736,-0.405550,-0.359040,0.314838,0.999965,0.005495,0.006266,-0.005450,0.999960,-0.007078,-0.006305,0.007044,0.999955
08630,9.552257,-1.555417,-1.757865,0.004891,-0.054552,0.023574,0.006922,0.009721,0.007384,-0.030326,0.788501,-1.273024,0.095522,-0.015550,-0.017584,1.000000,0.000035,0.000049,0.000037,0.999985,-0.003457,-0.003136,0.002745,-0.397121,-0.358235,0.315808,0.999965,0.005512,0.006252,-0.005468,0.999961,-0.006931,-0.006290,0.006896,0.999956
08631,9.532780,-1.573815,-1.723979,0.011245,-0.019022,0.001711,0.002902,0.004399,0.007113,-0.030213,0.792122,-1.274815,0.095328,-0.015735,-0.017242,1.000000,0.000015,0.000022,0.000036,0.999986,-0.003406,-0.003113,0.002725,-0.391305,-0.355659,0.313460,0.999966,0.005471,0.006207,-0.005428,0.999962,-0.006829,-0.006245,0.006795,0.999957
08632,9.527138,-1.598218,-1.721477,-0.004552,-0.000806,-0.000240,0.006918,0.002097,0.006460,-0.028613,0.784489,-1.286550,0.095272,-0.015979,-0.017216,1.000000,0.000035,0.000010,0.000032,0.999986,-0.003366,-0.003083,0.002738,-0.386717,-0.352198,0.314913,0.999966,0.005496,0.006147,-0.005455,0.999962,-0.006749,-0.006184,0.006716,0.999958
08633,9.485240,-1.640605,-1.731858,-0.049970,0.020674,-0.032209,0.007511,0.000714,0.010804,-0.033590,0.785580,-1.279502,0.094853,-0.016400,-0.017320,1.000000,0.000038,0.000004,0.000054,0.999986,-0.003310,-0.003034,0.002740,-0.380244,-0.346617,0.315100,0.999967,0.005499,0.006050,-0.005459,0.999963,-0.006636,-0.006086,0.006603,0.999960
08634,9.540680,-1.606396,-1.752502,-0.026196,-0.018595,0.019673,0.008551,-0.008756,0.010844,-0.034892,0.782678,-1.268345,0.095408,-0.016058,-0.017522,1.000000,0.000043,-0.000044,0.000054,0.999986,-0.003281,-0.002950,0.002757,-0.376884,-0.337019,0.317014,0.999967,0.005533,0.005882,-0.005494,0.999963,-0.006578,-0.005918,0.006545,0.999961
08635,9.484744,-1.642732,-1.732558,-0.049429,0.020309,-0.032205,0.008388,-0.003676,0.006337,-0.019655,0.786320,-1.284280,0.094848,-0.016424,-0.017325,1.000000,0.000042,-0.000018,0.000032,0.999987,-0.003254,-0.002901,0.002771,-0.373775,-0.331430,0.318567,0.999968,0.005560,0.005785,-0.005522,0.999963,-0.006523,-0.005821,0.006491,0.999962
08636,9.529095,-1.625534,-1.697368,-0.001661,0.032934,0.001893,0.009453,-0.009681,0.004084,-0.026850,0.783630,-1.277427,0.095292,-0.016253,-0.016970,1.000000,0.000047,-0.000048,0.000020,0.999987,-0.003253,-0.002836,0.002818,-0.373714,-0.323876,0.324027,0.999968,0.005655,0.005653,-0.005618,0.999963,-0.006522,-0.005689,0.006490,0.999963
08637,9.520507,-1.626167,-1.721083,-0.019246,0.016633,-0.002185,0.007338,-0.009454,0.004451,-0.028978,0.785200,-1.278148,0.095206,-0.016259,-0.017207,1.000000,0.000037,-0.000047,0.000022,0.999987,-0.003254,-0.002773,0.002834,-0.373750,-0.316684,0.325743,0.999969,0.005685,0.005527,-0.005649,0.999963,-0.006523,-0.005564,0.006492,0.999963
08638,9.489628,-1.620870,-1.736888,-0.032441,0.001574,-0.030255,0.008168,-0.013147,0.005497,-0.027249,0.786047,-1.279089,0.094898,-0.016205,-0.017363,1.000000,0.000041,-0.000066,0.000027,0.999987,-0.003261,-0.002691,0.002870,-0.374566,-0.307238,0.329942,0.999969,0.005758,0.005362,-0.005723,0.999962,-0.006537,-0.005400,0.006506,0.999964
08639,9.511534,-1.627423,-1.746295,-0.036519,0.000162,-0.006261,0.003102,-0.016622,0.004264,-0.032620,0.782815,-1.276977,0.095117,-0.016272,-0.017455,1.000000,0.000016,-0.000083,0.000021,0.999987,-0.003292,-0.002603,0.002871,-0.378053,-0.297203,0.330010,0.999970,0.005760,0.005187,-0.005725,0.999962,-0.006598,-0.005225,0.006568,0.999965
08640,9.508454,-1.604349,-1.772615,-0.038007,-0.034425,-0.008394,0.005008,-0.011073,0.004900,-0.030438,0.785046,-1.274758,0.095086,-0.016041,-0.017721,1.000000,0.000025,-0.000055,0.000025,0.999987,-0.003298,-0.002532,0.002876,-0.378715,-0.289071,0.330501,0.999971,0.005768,0.005045,-0.005735,0.999962,-0.006610,-0.005083,0.006581,0.999965
08641,9.510978,-1.628276,-1.748527,-0.035981,-0.000157,-0.006259,0.010544,-0.012221,-0.000465,-0.028585,0.792282,-1.274722,0.095111,-0.016282,-0.017480,1.000000,0.000053,-0.000061,-0.000002,0.999987,-0.003321,-0.002477,0.002913,-0.381338,-0.282706,0.334767,0.999971,0.005843,0.004934,-0.005810,0.999961,-0.006655,-0.004973,0.006627,0.999966
08642,9.555285,-1.640402,-1.765525,-0.044375,-0.002757,0.041727,0.010974,-0.008524,-0.000629,-0.039779,0.780122,-1.271392,0.095554,-0.016403,-0.017652,1.000000,0.000055,-0.000043,-0.000003,0.999987,-0.003335,-0.002434,0.002954,-0.382977,-0.277818,0.339429,0.999971,0.005924,0.004849,-0.005892,0.999960,-0.006684,-0.004888,0.006655,0.999966
08643,9.502475,-1.598728,-1.720730,0.002821,-0.001228,-0.024232,0.012691,-0.001361,-0.002208,-0.023984,0.792073,-1.274122,0.095025,-0.015987,-0.017208,1.000000,0.000063,-0.000007,-0.000011,0.999987,-0.003324,-0.002424,0.002994,-0.381760,-0.276587,0.344028,0.999970,0.006004,0.004827,-0.005972,0.999960,-0.006663,-0.004867,0.006634,0.999966
08644,9.544441,-1.557180,-1.709423,0.048734,-0.022979,0.007720,0.005547,0.014098,-0.003526,-0.032102,0.795079,-1.271820,0.095443,-0.015573,-0.017101,1.000000,0.000028,0.000070,-0.000018,0.999987,-0.003277,-0.002474,0.002971,-0.376336,-0.282370,0.341424,0.999970,0.005959,0.004928,-0.005926,0.999961,-0.006568,-0.004967,0.006539,0.999966
08645,9.494591,-1.598462,-1.741338,-0.014537,-0.017616,-0.028308,-0.004598,0.018929,-0.001852,-0.027084,0.785708,-1.275605,0.094944,-0.015986,-0.017422,1.000000,-0.000023,0.000095,-0.000009,0.999987,-0.003217,-0.002535,0.002910,-0.369443,-0.289360,0.334441,0.999970,0.005837,0.005050,-0.005804,0.999962,-0.006448,-0.005088,0.006418,0.999966
08646,9.525520,-1.604006,-1.725045,-0.000743,-0.002766,-0.000239,-0.005648,0.013151,-0.003736,-0.031964,0.789885,-1.278150,0.095254,-0.016042,-0.017256,1.000000,-0.000028,0.000066,-0.000019,0.999988,-0.003190,-0.002581,0.002856,-0.366387,-0.294662,0.328186,0.999970,0.005728,0.005143,-0.005695,0.999963,-0.006395,-0.005179,0.006365,0.999966
08647,9.500746,-1.574148,-1.741043,0.002070,-0.036064,-0.026369,-0.008644,0.010146,0.000177,-0.025851,0.787422,-1.276420,0.095007,-0.015742,-0.017415,1.000000,-0.000043,0.000051,0.000001,0.999988,-0.003158,-0.002603,0.002781,-0.362670,-0.297259,0.319586,0.999971,0.005578,0.005188,-0.005545,0.999965,-0.006330,-0.005223,0.006301,0.999967
08648,9.517517,-1.603886,-1.746222,-0.018048,-0.019150,-0.004314,-0.008050,0.008766,0.004522,-0.028438,0.786932,-1.273249,0.095175,-0.016037,-0.017466,1.000000,-0.000040,0.000044,0.000023,0.999988,-0.003117,-0.002603,0.002717,-0.358015,-0.297361,0.312250,0.999972,0.005450,0.005190,-0.005417,0.999966,-0.006248,-0.005224,0.006220,0.999967
08649,9.506397,-1.651512,-1.741230,-0.049940,0.017246,-0.008190,-0.001704,0.008086,0.003420,-0.028518,0.788827,-1.275747,0.095064,-0.016514,-0.017416,1.000000,-0.000009,0.000040,0.000017,0.999988,-0.003072,-0.002607,0.002674,-0.352863,-0.297789,0.307371,0.999972,0.005365,0.005197,-0.005332,0.999967,-0.006158,-0.005230,0.006131,0.999968
08650,9.498062,-1.651908,-1.763775,-0.067497,0.001032,-0.012262,0.001664,0.000237,0.003013,-0.026862,0.788127,-1.273395,0.094981,-0.016517,-0.017638,1.000000,0.000008,0.000001,0.000015,0.999988,-0.003055,-0.002582,0.002669,-0.350910,-0.294922,0.306712,0.999972,0.005353,0.005147,-0.005321,0.999967,-0.006124,-0.005180,0.006097,0.999968
08651,9.517592,-1.604957,-1.744830,-0.017230,-0.019519,-0.004313,0.010105,0.003491,0.004761,-0.029831,0.787634,-1.273149,0.095176,-0.016046,-0.017451,1.000000,0.000051,0.000017,0.000024,0.999989,-0.003007,-0.002564,0.002686,-0.345395,-0.292892,0.308696,0.999972,0.005388,0.005112,-0.005357,0.999967,-0.006028,-0.005144,0.006001,0.999969
08652,9.528776,-1.558305,-1.748617,0.015218,-0.056124,-0.000441,0.005020,0.004176,0.006744,-0.032017,0.777476,-1.268064,0.095288,-0.015579,-0.017489,1.000000,0.000025,0.000021,0.000034,0.999989,-0.002961,-0.002540,0.002691,-0.340053,-0.290124,0.309198,0.999973,0.005396,0.005064,-0.005366,0.999968,-0.005935,-0.005095,0.005908,0.999970
08653,9.536986,-1.659334,-1.724592,-0.035286,0.031698,0.019884,0.001267,0.007629,0.001803,-0.033869,0.783520,-1.274899,0.095369,-0.016592,-0.017250,1.000000,0.000006,0.000038,0.000009,0.999989,-0.002919,-0.002547,0.002664,-0.335312,-0.291003,0.306178,0.999973,0.005344,0.005079,-0.005314,0.999969,-0.005852,-0.005110,0.005825,0.999970
08654,9.528762,-1.629931,-1.695018,0.003212,0.030674,0.001900,0.006946,0.005564,0.004164,-0.031466,0.782113,-1.278024,0.095287,-0.016297,-0.016953,1.000000,0.000035,0.000028,0.000021,0.999989,-0.002870,-0.002540,0.002641,-0.329625,-0.290226,0.303439,0.999973,0.005296,0.005065,-0.005267,0.999970,-0.005753,-0.005096,0.005726,0.999971
08655,9.489845,-1.624533,-1.732278,-0.027923,-0.000482,-0.030241,0.010556,0.003027,0.001381,-0.030596,0.787628,-1.278999,0.094898,-0.016244,-0.017325,1.000000,0.000053,0.000015,0.000007,0.999989,-0.002834,-0.002533,0.002664,-0.325568,-0.289361,0.306065,0.999973,0.005342,0.005050,-0.005313,0.999970,-0.005682,-0.005080,0.005655,0.999971
08656,9.528891,-1.559858,-1.746606,0.016221,-0.056730,-0.000446,0.001449,-0.001611,0.003096,-0.026703,0.785516,-1.283255,0.095289,-0.015597,-0.017465,1.000000,0.000007,-0.000008,0.000015,0.999989,-0.002820,-0.002503,0.002640,-0.323889,-0.285920,0.303363,0.999974,0.005295,0.004990,-0.005266,0.999970,-0.005653,-0.005020,0.005626,0.999972
08657,9.512021,-1.631066,-1.740232,-0.031727,-0.002043,-0.006245,0.003375,-0.000223,0.000515,-0.032880,0.781619,-1.271623,0.095120,-0.016310,-0.017402,1.000000,0.000017,-0.000001,0.000003,0.999990,-0.002807,-0.002487,0.002632,-0.322431,-0.284095,0.302400,0.999974,0.005278,0.004958,-0.005250,0.999970,-0.005627,-0.004988,0.005601,0.999972
08658,9.498049,-1.625286,-1.709336,-0.009256,0.015202,-0.026166,0.003753,-0.003452,0.004943,-0.024115,0.783262,-1.277866,0.094981,-0.016250,-0.017092,1.000000,0.000019,-0.000017,0.000025,0.999990,-0.002789,-0.002443,0.002625,-0.320373,-0.279058,0.301550,0.999974,0.005263,0.004870,-0.005236,0.999971,-0.005591,-0.004900,0.005566,0.999973
08659,9.534088,-1.637767,-1.748622,-0.035512,-0.003613,0.017751,0.002304,-0.001841,0.001847,-0.025266,0.794664,-1.278582,0.095341,-0.016377,-0.017486,1.000000,0.000012,-0.000009,0.000009,0.999990,-0.002779,-0.002416,0.002611,-0.319166,-0.276041,0.300011,0.999975,0.005236,0.004818,-0.005209,0.999971,-0.005570,-0.004847,0.005545,0.999973
08660,9.497832,-1.625934,-1.709927,-0.008647,0.014976,-0.026165,0.005032,-0.007610,0.002609,-0.023489,0.785328,-1.278276,0.094979,-0.016258,-0.017096,1.000000,0.000025,-0.000038,0.000013,0.999990,-0.002786,-0.002362,0.002652,-0.319943,-0.269824,0.304671,0.999975,0.005317,0.004709,-0.005291,0.999970,-0.005584,-0.004739,0.005559,0.999973
08661,9.486572,-1.602754,-1.758592,-0.028053,-0.035717,-0.032378,0.008003,-0.008068,0.000993,-0.029648,0.786578,-1.282260,0.094867,-0.016026,-0.017583,1.000000,0.000040,-0.000040,0.000005,0.999990,-0.002793,-0.002316,0.002672,-0.320718,-0.264584,0.306984,0.999975,0.005358,0.004618,-0.005332,0.999970,-0.005598,-0.004648,0.005573,0.999974
08662,9.519762,-1.632401,-1.719300,-0.012390,0.013415,-0.002169,0.002512,-0.007617,0.000845,-0.025488,0.779116,-1.284569,0.095198,-0.016323,-0.017190,1.000000,0.000013,-0.000038,0.000004,0.999990,-0.002805,-0.002270,0.002687,-0.322144,-0.259257,0.308616,0.999975,0.005386,0.004525,-0.005361,0.999970,-0.005622,-0.004555,0.005598,0.999974
08663,9.502922,-1.602966,-1.714305,0.008259,-0.003747,-0.024236,0.004385,-0.013155,0.002857,-0.025925,0.784144,-1.275898,0.095031,-0.016028,-0.017137,1.000000,0.000022,-0.000066,0.000014,0.999990,-0.002827,-0.002200,0.002692,-0.324662,-0.251199,0.309217,0.999976,0.005397,0.004384,-0.005372,0.999970,-0.005666,-0.004415,0.005643,0.999974
08664,9.519346,-1.632772,-1.721250,-0.011801,0.013052,-0.002168,0.008237,-0.010381,-0.002305,-0.026973,0.784658,-1.282180,0.095194,-0.016328,-0.017208,1.000000,0.000041,-0.000052,-0.000012,0.999990,-0.002850,-0.002154,0.002736,-0.327219,-0.245942,0.314206,0.999976,0.005484,0.004292,-0.005459,0.999969,-0.005711,-0.004324,0.005687,0.999974
08665,9.538658,-1.615249,-1.755370,-0.017665,-0.022777,0.019684,0.002081,-0.011313,0.001011,-0.029871,0.784173,-1.277419,0.095388,-0.016152,-0.017548,1.000000,0.000010,-0.000057,0.000005,0.999990,-0.002875,-0.002097,0.002730,-0.330068,-0.239386,0.313539,0.999976,0.005472,0.004178,-0.005448,0.999969,-0.005761,-0.004209,0.005738,0.999975
08666,9.527389,-1.591817,-1.804187,-0.037057,-0.073487,0.013469,0.002323,-0.006003,-0.001368,-0.032948,0.779197,-1.274628,0.095274,-0.015919,-0.018039,1.000000,0.000012,-0.000030,-0.000007,0.999990,-0.002888,-0.002066,0.002727,-0.331639,-0.235817,0.313151,0.999977,0.005465,0.004116,-0.005442,0.999968,-0.005788,-0.004147,0.005766,0.999975
08667,9.555073,-1.644952,-1.762436,-0.037504,-0.006077,0.041754,0.001045,-0.001844,0.000965,-0.030198,0.786584,-1.281617,0.095551,-0.016449,-0.017624,1.000000,0.000005,-0.000009,0.000005,0.999990,-0.002883,-0.002042,0.002708,-0.330957,-0.233156,0.311004,0.999977,0.005428,0.004069,-0.005404,0.999969,-0.005776,-0.004101,0.005754,0.999975
08668,9.552476,-1.591716,-1.735223,0.017049,-0.025427,0.025678,0.009305,0.010648,0.001413,-0.024794,0.789482,-1.277946,0.095524,-0.015916,-0.017358,1.000000,0.000047,0.000053,0.000007,0.999990,-0.002821,-0.002063,0.002700,-0.323925,-0.235531,0.310053,0.999977,0.005411,0.004111,-0.005388,0.999970,-0.005653,-0.004141,0.005631,0.999976
08669,9.505212,-1.657147,-1.742349,-0.044427,0.014427,-0.008159,0.008666,0.012728,0.002579,-0.035904,0.787680,-1.274637,0.095051,-0.016569,-0.017430,1.000000,0.000043,0.000064,0.000013,0.999990,-0.002751,-0.002086,0.002705,-0.315870,-0.238159,0.310574,0.999977,0.005420,0.004157,-0.005398,0.999970,-0.005513,-0.004186,0.005490,0.999976
08670,9.533237,-1.639845,-1.751311,-0.032430,-0.005191,0.017761,0.013536,0.010196,0.000679,-0.018173,0.781806,-1.290949,0.095332,-0.016397,-0.017519,1.000000,0.000068,0.000051,0.000003,0.999990,-0.002694,-0.002106,0.002734,-0.309377,-0.240530,0.313976,0.999976,0.005480,0.004198,-0.005457,0.999971,-0.005400,-0.004227,0.005377,0.999977
08671,9.502863,-1.604195,-1.713481,0.010400,-0.004964,-0.024238,0.013339,0.004185,-0.002452,-0.021768,0.783767,-1.274933,0.095028,-0.016042,-0.017138,1.000000,0.000067,0.000021,-0.000012,0.999990,-0.002665,-0.002116,0.002773,-0.306003,-0.241669,0.318428,0.999976,0.005558,0.004218,-0.005535,0.999970,-0.005341,-0.004247,0.005317,0.999977
08672,9.502947,-1.604242,-1.712973,0.010800,-0.005177,-0.024239,0.005922,0.003248,-0.000019,-0.030426,0.785026,-1.284582,0.095029,-0.016042,-0.017132,1.000000,0.000030,0.000016,-0.000000,0.999990,-0.002635,-0.002108,0.002825,-0.302664,-0.240651,0.324358,0.999975,0.005661,0.004200,-0.005639,0.999970,-0.005282,-0.004230,0.005259,0.999977
08673,9.502967,-1.604344,-1.712767,0.011060,-0.005326,-0.024239,-0.000855,0.000231,0.001249,-0.032451,0.788850,-1.280041,0.095030,-0.016043,-0.017128,1.000000,-0.000004,0.000001,0.000006,0.999990,-0.002624,-0.002091,0.002795,-0.301322,-0.238730,0.320928,0.999976,0.005601,0.004167,-0.005579,0.999971,-0.005259,-0.004196,0.005236,0.999977
08674,9.488967,-1.628229,-1.733617,-0.022634,-0.003298,-0.030227,0.001044,-0.001844,0.000965,-0.030216,0.779870,-1.272296,0.094890,-0.016282,-0.017335,1.000000,0.000005,-0.000009,0.000005,0.999991,-0.002618,-0.002068,0.002768,-0.300698,-0.236182,0.317804,0.999976,0.005547,0.004122,-0.005525,0.999971,-0.005248,-0.004151,0.005225,0.999978
08675,9.536076,-1.693773,-1.776584,-0.085311,0.013204,0.033855,0.008245,-0.002755,-0.001385,-0.028245,0.779676,-1.275060,0.095361,-0.016938,-0.017765,1.000000,0.000041,-0.000014,-0.000007,0.999991,-0.002615,-0.002050,0.002787,-0.300310,-0.234069,0.319986,0.999976,0.005585,0.004085,-0.005563,0.999971,-0.005241,-0.004114,0.005218,0.999978
08676,9.519499,-1.634250,-1.719004,-0.008543,0.011242,-0.002162,0.011621,-0.002977,-0.000870,-0.035881,0.783192,-1.274391,0.095195,-0.016342,-0.017190,1.000000,0.000058,-0.000015,-0.000004,0.999991,-0.002606,-0.002028,0.002811,-0.299234,-0.231605,0.322721,0.999976,0.005632,0.004042,-0.005611,0.999971,-0.005223,-0.004072,0.005200,0.999978
08677,9.508391,-1.610948,-1.766960,-0.027986,-0.039437,-0.008379,0.014168,0.000494,-0.001404,-0.032766,0.785406,-1.276940,0.095084,-0.016109,-0.017671,1.000000,0.000071,0.000002,-0.000007,0.999991,-0.002584,-0.002022,0.002856,-0.296768,-0.230811,0.327883,0.999976,0.005723,0.004028,-0.005702,0.999970,-0.005180,-0.004058,0.005156,0.999978
08678,9.530763,-1.587046,-1.723003,0.024024,-0.025607,0.001673,0.011648,0.000485,-0.003168,-0.030509,0.779159,-1.283301,0.095307,-0.015871,-0.017231,1.000000,0.000058,0.000002,-0.000016,0.999991,-0.002573,-0.002024,0.002858,-0.295558,-0.231093,0.328144,0.999975,0.005727,0.004033,-0.005706,0.999970,-0.005158,-0.004063,0.005135,0.999979
08679,9.516877,-1.610678,-1.743460,-0.009651,-0.023577,-0.004312,0.008488,0.002555,-0.003767,-0.034299,0.788002,-1.279574,0.095168,-0.016108,-0.017436,1.000000,0.000042,0.000013,-0.000019,0.999991,-0.002560,-0.002033,0.002876,-0.294009,-0.232108,0.330193,0.999975,0.005763,0.004051,-0.005742,0.999970,-0.005131,-0.004080,0.005108,0.999979
08680,9.533703,-1.610255,-1.697115,0.026341,0.008475,0.003822,0.005733,0.004862,-0.002234,-0.030539,0.782806,-1.272970,0.095336,-0.016103,-0.016974,1.000000,0.000029,0.000024,-0.000011,0.999991,-0.002535,-0.002046,0.002857,-0.291167,-0.233659,0.327928,0.999975,0.005723,0.004078,-0.005703,0.999971,-0.005082,-0.004107,0.005058,0.999979
08681,9.489192,-1.628159,-1.732451,-0.020905,-0.004333,-0.030224,0.003375,-0.000221,0.000515,-0.025168,0.781727,-1.272815,0.094892,-0.016281,-0.017325,1.000000,0.000017,-0.000001,0.000003,0.999991,-0.002522,-0.002030,0.002848,-0.289709,-0.231834,0.326966,0.999976,0.005707,0.004046,-0.005686,0.999971,-0.005056,-0.004075,0.005033,0.999979
08682,9.553145,-1.622791,-1.781824,-0.035391,-0.042671,0.039615,0.005275,-0.002296,0.000232,-0.024606,0.789131,-1.280008,0.095532,-0.016227,-0.017818,1.000000,0.000026,-0.000011,0.000001,0.999991,-0.002517,-0.002007,0.002852,-0.289098,-0.229127,0.327382,0.999976,0.005714,0.003999,-0.005694,0.999971,-0.005046,-0.004028,0.005023,0.999979
08683,9.528086,-1.634079,-1.694826,0.011101,0.026358,0.001906,0.006131,-0.002527,-0.001017,-0.031044,0.781071,-1.279138,0.095281,-0.016341,-0.016948,1.000000,0.000031,-0.000013,-0.000005,0.999991,-0.002514,-0.001988,0.002860,-0.288767,-0.226967,0.328329,0.999976,0.005730,0.003961,-0.005710,0.999971,-0.005040,-0.003990,0.005017,0.999979
08684,9.514087,-1.657936,-1.715705,-0.022547,0.028411,-0.004072,0.009506,-0.002748,-0.000502,-0.021652,0.781855,-1.280754,0.095141,-0.016579,-0.017157,1.000000,0.000048,-0.000014,-0.000003,0.999991,-0.002507,-0.001965,0.002890,-0.287929,-0.224353,0.331751,0.999976,0.005790,0.003916,-0.005770,0.999971,-0.005025,-0.003945,0.005003,0.999980
08685,9.539114,-1.616890,-1.751374,-0.012389,-0.025717,0.019684,0.006959,-0.006219,0.000033,-0.031975,0.782626,-1.282176,0.095392,-0.016168,-0.017511,1.000000,0.000035,-0.000031,0.000000,0.999991,-0.002512,-0.001929,0.002905,-0.288506,-0.220259,0.333407,0.999976,0.005819,0.003844,-0.005800,0.999971,-0.005035,-0.003873,0.005013,0.999980
08686,9.516773,-1.611048,-1.743685,-0.007783,-0.024639,-0.004313,0.008435,-0.004364,0.000831,-0.032644,0.782812,-1.278482,0.095168,-0.016109,-0.017435,1.000000,0.000042,-0.000022,0.000004,0.999991,-0.002504,-0.001896,0.002931,-0.287574,-0.216388,0.336389,0.999976,0.005871,0.003777,-0.005852,0.999970,-0.005019,-0.003806,0.004997,0.999980
08687,9.505444,-1.658651,-1.739648,-0.039614,0.011817,-0.008134,0.013711,-0.006659,0.001063,-0.022458,0.781176,-1.278284,0.095055,-0.016585,-0.017394,1.000000,0.000069,-0.000033,0.000005,0.999991,-0.002499,-0.001855,0.002978,-0.286980,-0.211681,0.341733,0.999975,0.005964,0.003695,-0.005946,0.999970,-0.005009,-0.003724,0.004987,0.999981
08688,9.530406,-1.617838,-1.775451,-0.029440,-0.042333,0.015619,0.013711,-0.006658,0.001063,-0.033287,0.787492,-1.272024,0.095305,-0.016177,-0.017752,1.000000,0.000069,-0.000033,0.000005,0.999991,-0.002493,-0.001813,0.003024,-0.286272,-0.206847,0.347092,0.999975,0.006058,0.003610,-0.006040,0.999969,-0.004996,-0.003640,0.004974,0.999981
08689,9.519167,-1.635520,-1.719632,-0.005134,0.009309,-0.002158,0.013927,-0.004809,0.000979,-0.031544,0.785754,-1.270702,0.095192,-0.016354,-0.017195,1.000000,0.000070,-0.000024,0.000005,0.999991,-0.002481,-0.001779,0.003071,-0.284960,-0.202930,0.352387,0.999975,0.006150,0.003542,-0.006133,0.999969,-0.004973,-0.003572,0.004952,0.999981
08690,9.518969,-1.665839,-1.771603,-0.061054,-0.005903,0.011802,0.013927,-0.004808,0.000979,-0.027228,0.776902,-1.276576,0.095190,-0.016657,-0.017715,1.000000,0.000070,-0.000024,0.000005,0.999991,-0.002476,-0.001747,0.003094,-0.284301,-0.199286,0.355022,0.999975,0.006196,0.003478,-0.006179,0.999969,-0.004962,-0.003509,0.004940,0.999982
08691,9.524699,-1.612356,-1.721790,0.011382,-0.009180,-0.000249,0.011440,0.006265,-0.002175,-0.028116,0.780863,-1.285165,0.095246,-0.016124,-0.017222,1.000000,0.000057,0.000031,-0.000011,0.999991,-0.002440,-0.001763,0.003121,-0.280266,-0.201172,0.358190,0.999974,0.006252,0.003511,-0.006234,0.999969,-0.004892,-0.003542,0.004870,0.999982
08692,9.533170,-1.612191,-1.698271,0.029553,0.006690,0.003814,0.004662,0.003246,-0.000904,-0.034989,0.779548,-1.279904,0.095331,-0.016122,-0.016985,1.000000,0.000023,0.000016,-0.000005,0.999991,-0.002415,-0.001764,0.003112,-0.277350,-0.201245,0.357079,0.999974,0.006232,0.003512,-0.006215,0.999969,-0.004841,-0.003542,0.004819,0.999982
08693,9.510776,-1.666161,-1.793465,-0.078152,-0.022524,0.007743,0.004231,-0.000451,-0.000734,-0.032385,0.779365,-1.274518,0.095108,-0.016662,-0.017935,1.000000,0.000021,-0.000002,-0.000004,0.999991,-0.002406,-0.001751,0.003109,-0.276359,-0.199825,0.356742,0.999975,0.006226,0.003488,-0.006209,0.999969,-0.004823,-0.003518,0.004802,0.999982
08694,9.538736,-1.618586,-1.751869,-0.010086,-0.027121,0.019683,0.009938,0.000952,-0.000671,-0.030323,0.777105,-1.274032,0.095387,-0.016185,-0.017520,1.000000,0.000050,0.000005,-0.000003,0.999991,-0.002384,-0.001747,0.003095,-0.273782,-0.199299,0.355175,0.999975,0.006199,0.003478,-0.006182,0.999969,-0.004778,-0.003508,0.004757,0.999983
08695,9.502547,-1.636546,-1.764244,-0.039457,-0.023784,-0.010283,0.017545,0.000283,-0.000890,-0.027859,0.786067,-1.271632,0.095025,-0.016364,-0.017644,1.000000,0.000088,0.000001,-0.000004,0.999991,-0.002357,-0.001737,0.003157,-0.270725,-0.198207,0.362179,0.999974,0.006321,0.003459,-0.006305,0.999969,-0.004725,-0.003489,0.004703,0.999983
08696,9.530425,-1.619191,-1.774119,-0.027472,-0.043481,0.015620,0.016906,0.002364,0.000274,-0.026614,0.783285,-1.276479,0.095304,-0.016190,-0.017744,1.000000,0.000085,0.000012,0.000001,0.999991,-0.002322,-0.001731,0.003200,-0.266669,-0.197532,0.367188,0.999974,0.006409,0.003448,-0.006392,0.999969,-0.004654,-0.003477,0.004632,0.999983
08697,9.575030,-1.631464,-1.789389,-0.035818,-0.046173,0.063616,0.021594,0.009070,-0.002932,-0.025145,0.775687,-1.271814,0.095749,-0.016314,-0.017900,1.000000,0.000108,0.000045,-0.000015,0.999991,-0.002267,-0.001760,0.003275,-0.260436,-0.200844,0.375802,0.999972,0.006559,0.003505,-0.006543,0.999968,-0.004545,-0.003535,0.004522,0.999984
08698,9.519765,-1.566263,-1.768155,0.009449,-0.079134,-0.004572,0.022647,0.014857,-0.001057,-0.024053,0.782055,-1.276874,0.095196,-0.015661,-0.017690,1.000000,0.000113,0.000074,-0.000005,0.999990,-0.002185,-0.001801,0.003353,-0.251022,-0.205575,0.384629,0.999971,0.006713,0.003588,-0.006697,0.999968,-0.004381,-0.003617,0.004357,0.999984
08699,9.531119,-1.589807,-1.718480,0.029479,-0.028779,0.001649,0.016724,0.011605,-0.001035,-0.028882,0.780720,-1.273388,0.095310,-0.015897,-0.017192,1.000000,0.000084,0.000058,-0.000005,0.999990,-0.002121,-0.001833,0.003400,-0.243723,-0.209176,0.390099,0.999970,0.006808,0.003651,-0.006793,0.999968,-0.004254,-0.003680,0.004229,0.999984
08700,9.525686,-1.613810,-1.714959,0.013733,-0.010594,-0.000254,0.011827,0.010678,0.003163,-0.019926,0.785296,-1.279679,0.095256,-0.016136,-0.017156,1.000000,0.000059,0.000053,0.000016,0.999990,-0.002052,-0.001845,0.003423,-0.235911,-0.210578,0.392722,0.999970,0.006854,0.003675,-0.006839,0.999968,-0.004117,-0.003703,0.004092,0.999985
08701,9.525778,-1.614473,-1.713822,0.013994,-0.010743,-0.000254,0.011160,0.009301,0.006629,-0.030042,0.789534,-1.273347,0.095258,-0.016141,-0.017144,1.000000,0.000056,0.000047,0.000033,0.999990,-0.001977,-0.001841,0.003439,-0.227240,-0.210176,0.394544,0.999970,0.006886,0.003668,-0.006871,0.999969,-0.003966,-0.003695,0.003941,0.999985
08702,9.536830,-1.668597,-1.716500,-0.022063,0.024565,0.019943,0.015816,0.004923,0.004820,-0.028341,0.787094,-1.277806,0.095368,-0.016682,-0.017169,1.000000,0.000079,0.000025,0.000024,0.999990,-0.001921,-0.001826,0.003498,-0.220917,-0.208447,0.401196,0.999969,0.007002,0.003638,-0.006988,0.999968,-0.003856,-0.003665,0.003830,0.999986
08703,9.531522,-1.592207,-1.714020,0.030588,-0.029258,0.001644,0.012259,0.014378,0.002991,-0.026720,0.784997,-1.284007,0.095314,-0.015920,-0.017148,1.000000,0.000061,0.000072,0.000015,0.999990,-0.001840,-0.001853,0.003518,-0.211558,-0.211578,0.403506,0.999968,0.007042,0.003693,-0.007029,0.999968,-0.003692,-0.003719,0.003666,0.999986
08704,9.442655,-1.598616,-1.732113,-0.008088,-0.039405,-0.080375,-0.002767,0.014105,0.005639,-0.034656,0.769010,-1.281750,0.094426,-0.015984,-0.017328,1.000000,-0.000014,0.000071,0.000028,0.999991,-0.001770,-0.001869,0.003464,-0.203602,-0.213499,0.397357,0.999969,0.006935,0.003726,-0.006922,0.999970,-0.003554,-0.003751,0.003528,0.999987
08705,9.470506,-1.651965,-1.688608,-0.008369,0.027991,-0.052051,-0.005503,0.012242,0.003960,-0.031326,0.780218,-1.275289,0.094704,-0.016518,-0.016891,1.000000,-0.000028,0.000061,0.000020,0.999991,-0.001714,-0.001886,0.003399,-0.197147,-0.215403,0.389908,0.999970,0.006805,0.003759,-0.006792,0.999971,-0.003441,-0.003783,0.003415,0.999987
08706,9.478874,-1.682039,-1.716746,-0.046389,0.028722,-0.034009,-0.006987,0.002757,0.002259,-0.026625,0.786395,-1.275217,0.094789,-0.016820,-0.017168,1.000000,-0.000035,0.000014,0.000011,0.999991,-0.001694,-0.001877,0.003302,-0.194787,-0.214418,0.378752,0.999971,0.006610,0.003742,-0.006598,0.999972,-0.003400,-0.003765,0.003375,0.999987
08707,9.487173,-1.712074,-1.745307,-0.084359,0.029537,-0.015966,0.002736,0.001864,0.001679,-0.027406,0.772591,-1.275020,0.094872,-0.017120,-0.017454,1.000000,0.000014,0.000009,0.000008,0.999991,-0.001671,-0.001864,0.003288,-0.192143,-0.212978,0.377117,0.999971,0.006582,0.003717,-0.006569,0.999973,-0.003354,-0.003739,0.003329,0.999987
08708,9.528965,-1.670834,-1.734812,-0.038411,0.007578,0.015889,0.006536,-0.002285,0.001120,-0.028513,0.785026,-1.277007,0.095290,-0.016707,-0.017348,1.000000,0.000033,-0.000011,0.000006,0.999992,-0.001660,-0.001837,0.003296,-0.190903,-0.209932,0.378053,0.999972,0.006598,0.003664,-0.006586,0.999973,-0.003332,-0.003686,0.003308,0.999988
08709,9.495645,-1.611557,-1.723431,0.002489,-0.026665,-0.028318,0.005915,-0.004374,-0.000925,-0.024265,0.776540,-1.273295,0.094957,-0.016116,-0.017233,1.000000,0.000030,-0.000022,-0.000005,0.999992,-0.001663,-0.001812,0.003305,-0.191284,-0.206982,0.379053,0.999972,0.006616,0.003613,-0.006604,0.999973,-0.003339,-0.003634,0.003315,0.999988
08710,9.559453,-1.646686,-1.668975,0.031903,0.037247,0.029964,-0.006356,-0.006953,0.000193,-0.031466,0.777650,-1.265182,0.095595,-0.016467,-0.016686,1.000000,-0.000032,-0.000035,0.000001,0.999992,-0.001688,-0.001772,0.003259,-0.194119,-0.202389,0.373746,0.999972,0.006523,0.003532,-0.006511,0.999973,-0.003388,-0.003554,0.003365,0.999988
08711,9.517665,-1.617418,-1.732887,-0.001259,-0.028201,-0.004319,-0.012064,-0.008359,0.000128,-0.026207,0.786230,-1.270035,0.095177,-0.016175,-0.017324,1.000000,-0.000060,-0.000042,0.000001,0.999992,-0.001723,-0.001728,0.003183,-0.198123,-0.197421,0.365038,0.999974,0.006371,0.003446,-0.006359,0.999974,-0.003458,-0.003468,0.003436,0.999988
08712,9.534142,-1.647073,-1.739563,-0.021318,-0.011190,0.017787,-0.008067,-0.006488,0.002690,-0.025927,0.773624,-1.270609,0.095342,-0.016470,-0.017392,1.000000,-0.000040,-0.000032,0.000013,0.999992,-0.001744,-0.001683,0.003112,-0.200460,-0.192205,0.356975,0.999975,0.006230,0.003355,-0.006219,0.999975,-0.003499,-0.003376,0.003478,0.999988
08713,9.511774,-1.670889,-1.783748,-0.072908,-0.025172,0.007777,-0.010748,-0.001434,-0.003595,-0.030373,0.773815,-1.279055,0.095118,-0.016712,-0.017836,1.000000,-0.000054,-0.000007,-0.000018,0.999992,-0.001767,-0.001677,0.003040,-0.203060,-0.191560,0.348704,0.999976,0.006086,0.003343,-0.006074,0.999975,-0.003544,-0.003365,0.003524,0.999988
08714,9.489379,-1.705077,-1.672028,-0.024423,0.078142,-0.027771,0.001891,-0.009702,-0.001185,-0.035930,0.781469,-1.273119,0.094895,-0.017051,-0.016716,1.000000,0.000009,-0.000049,-0.000006,0.999992,-0.001791,-0.001633,0.003025,-0.205809,-0.186503,0.346941,0.999976,0.006055,0.003255,-0.006043,0.999975,-0.003592,-0.003277,0.003572,0.999988
08715,9.492179,-1.657814,-1.700046,-0.010041,0.025262,-0.028045,0.007627,-0.004838,-0.003424,-0.022713,0.773421,-1.272680,0.094922,-0.016579,-0.016999,1.000000,0.000038,-0.000024,-0.000017,0.999992,-0.001803,-0.001614,0.003044,-0.207125,-0.184362,0.349190,0.999976,0.006094,0.003218,-0.006083,0.999975,-0.003615,-0.003240,0.003595,0.999988
08716,9.519979,-1.640111,-1.710743,0.001938,0.005512,-0.002154,0.005699,-0.006222,-0.000840,-0.027091,0.783465,-1.274848,0.095200,-0.016401,-0.017105,1.000000,0.000028,-0.000031,-0.000004,0.999992,-0.001812,-0.001582,0.003040,-0.208228,-0.180667,0.348722,0.999977,0.006086,0.003153,-0.006075,0.999975,-0.003634,-0.003175,0.003615,0.999988
08717,9.467058,-1.628026,-1.718225,-0.007138,-0.008162,-0.054212,-0.001673,-0.007874,-0.003918,-0.030276,0.782795,-1.277569,0.094671,-0.016282,-0.017178,1.000000,-0.000008,-0.000039,-0.000020,0.999993,-0.001847,-0.001555,0.003018,-0.212211,-0.177502,0.346149,0.999977,0.006041,0.003098,-0.006030,0.999975,-0.003704,-0.003120,0.003685,0.999988
08718,9.483599,-1.657321,-1.724915,-0.027184,0.008794,-0.032101,-0.006120,-0.009272,-0.003099,-0.030388,0.785232,-1.268224,0.094837,-0.016575,-0.017244,1.000000,-0.000031,-0.000046,-0.000015,0.999993,-0.001892,-0.001519,0.002967,-0.217301,-0.173448,0.340309,0.999978,0.005939,0.003027,-0.005928,0.999975,-0.003793,-0.003050,0.003775,0.999988
08719,9.497339,-1.663305,-1.756945,-0.049135,-0.008701,-0.012157,-0.002555,-0.011099,-0.000366,-0.026964,0.787245,-1.282938,0.094974,-0.016633,-0.017564,1.000000,-0.000013,-0.000055,-0.000002,0.999993,-0.001927,-0.001468,0.002940,-0.221256,-0.167541,0.337196,0.999978,0.005885,0.002924,-0.005874,0.999975,-0.003862,-0.002947,0.003844,0.999988
08720,9.494322,-1.710247,-1.730527,-0.062977,0.043978,-0.011875,0.005719,-0.010390,-0.004049,-0.025560,0.777584,-1.274227,0.094944,-0.017104,-0.017301,1.000000,0.000029,-0.000052,-0.000020,0.999993,-0.001966,-0.001432,0.002949,-0.225745,-0.163388,0.338218,0.999979,0.005903,0.002852,-0.005892,0.999975,-0.003940,-0.002875,0.003923,0.999988
08721,9.524822,-1.675402,-1.820776,-0.093042,-0.043598,0.027733,0.014586,-0.011049,-0.003385,-0.023283,0.784138,-1.268255,0.095249,-0.016754,-0.018204,1.000000,0.000073,-0.000055,-0.000017,0.999993,-0.001990,-0.001391,0.003007,-0.228500,-0.158675,0.344929,0.999978,0.006020,0.002769,-0.006009,0.999974,-0.003988,-0.002793,0.003971,0.999988
08722,9.527588,-1.668513,-1.744581,-0.034675,0.005791,0.015904,0.009976,-0.007381,-0.007085,-0.031165,0.780891,-1.283136,0.095276,-0.016688,-0.017443,1.000000,0.000050,-0.000037,-0.000035,0.999992,-0.002022,-0.001374,0.003053,-0.232194,-0.156708,0.350116,0.999978,0.006111,0.002735,-0.006100,0.999973,-0.004053,-0.002760,0.004036,0.999988
08723,9.547165,-1.620455,-1.726671,0.015533,-0.014955,0.023733,0.012948,-0.007837,-0.008700,-0.021745,0.780651,-1.278968,0.095472,-0.016208,-0.017264,1.000000,0.000065,-0.000039,-0.000044,0.999992,-0.002056,-0.001363,0.003105,-0.236031,-0.155445,0.356146,0.999977,0.006216,0.002713,-0.006205,0.999972,-0.004119,-0.002739,0.004103,0.999988
08724,9.538795,-1.620098,-1.750147,-0.002113,-0.031205,0.019676,0.009977,-0.007379,-0.007085,-0.029518,0.786421,-1.273983,0.095388,-0.016203,-0.017499,1.000000,0.000050,-0.000037,-0.000035,0.999992,-0.002084,-0.001347,0.003142,-0.239269,-0.153615,0.360316,0.999977,0.006289,0.002681,-0.006277,0.999972,-0.004176,-0.002707,0.004159,0.999988
08725,9.561015,-1.625788,-1.758641,-0.006139,-0.032628,0.043677,0.009742,-0.005058,-0.003792,-0.034255,0.772817,-1.276060,0.095610,-0.016259,-0.017585,1.000000,0.000049,-0.000025,-0.000019,0.999992,-0.002095,-0.001329,0.003172,-0.240522,-0.151525,0.363797,0.999976,0.006349,0.002645,-0.006338,0.999971,-0.004198,-0.002671,0.004181,0.999988
08726,9.494253,-1.607336,-1.734999,0.006936,-0.028951,-0.028327,0.003414,-0.008554,-0.005897,-0.025864,0.778460,-1.269114,0.094943,-0.016076,-0.017346,1.000000,0.000017,-0.000043,-0.000029,0.999992,-0.002133,-0.001308,0.003150,-0.244839,-0.149107,0.361340,0.999977,0.006307,0.002602,-0.006295,0.999971,-0.004273,-0.002629,0.004257,0.999987
08727,9.510869,-1.636416,-1.741503,-0.013096,-0.012035,-0.006209,-0.001007,-0.006497,-0.007381,-0.027422,0.777935,-1.278793,0.095109,-0.016368,-0.017412,1.000000,-0.000005,-0.000032,-0.000037,0.999992,-0.002174,-0.001297,0.003133,-0.249567,-0.147895,0.359353,0.999977,0.006272,0.002581,-0.006261,0.999971,-0.004356,-0.002608,0.004339,0.999987
08728,9.541338,-1.671833,-1.779006,-0.055327,-0.012471,0.035856,-0.000411,-0.007865,-0.003033,-0.027617,0.778968,-1.281010,0.095414,-0.016720,-0.017786,1.000000,-0.000002,-0.000039,-0.000015,0.999992,-0.002203,-0.001266,0.003113,-0.252942,-0.144295,0.357031,0.999977,0.006231,0.002518,-0.006220,0.999971,-0.004415,-0.002546,0.004399,0.999987
08729,9.480091,-1.659773,-1.809233,-0.082362,-0.042192,-0.020255,0.001944,-0.002784,-0.005790,-0.021108,0.779607,-1.280639,0.094801,-0.016600,-0.018091,1.000000,0.000010,-0.000014,-0.000029,0.999992,-0.002223,-0.001263,0.003105,-0.255183,-0.143956,0.356164,0.999978,0.006216,0.002513,-0.006205,0.999971,-0.004454,-0.002540,0.004438,0.999987
08730,9.482976,-1.652725,-1.732731,-0.023981,0.007078,-0.032091,0.012498,-0.007360,-0.005322,-0.018994,0.777877,-1.273619,0.094830,-0.016529,-0.017325,1.000000,0.000062,-0.000037,-0.000027,0.999992,-0.002241,-0.001240,0.003160,-0.257254,-0.141307,0.362435,0.999977,0.006326,0.002466,-0.006315,0.999970,-0.004490,-0.002495,0.004474,0.999987
08731,9.505274,-1.628309,-1.689721,0.028149,0.020714,-0.022102,0.011023,-0.009215,-0.006117,-0.022608,0.783422,-1.278246,0.095053,-0.016285,-0.016894,1.000000,0.000055,-0.000046,-0.000031,0.999992,-0.002273,-0.001215,0.003202,-0.260869,-0.138446,0.367265,0.999977,0.006410,0.002416,-0.006399,0.999969,-0.004553,-0.002445,0.004537,0.999987
08732,9.516301,-1.610864,-1.746426,0.004333,-0.031177,-0.004329,0.006772,-0.004599,-0.002177,-0.025430,0.780337,-1.278037,0.095163,-0.016109,-0.017463,1.000000,0.000034,-0.000023,-0.000011,0.999991,-0.002280,-0.001190,0.003237,-0.261705,-0.135490,0.371266,0.999976,0.006480,0.002365,-0.006469,0.999969,-0.004568,-0.002394,0.004552,0.999987
08733,9.513439,-1.657823,-1.719402,-0.009476,0.021423,-0.004033,0.003181,-0.006232,-0.002604,-0.021615,0.777541,-1.279756,0.095135,-0.016579,-0.017191,1.000000,0.000016,-0.000031,-0.000013,0.999991,-0.002299,-0.001163,0.003236,-0.263854,-0.132459,0.371094,0.999976,0.006477,0.002312,-0.006466,0.999968,-0.004605,-0.002342,0.004590,0.999987
08734,9.510619,-1.634183,-1.744965,-0.011109,-0.013169,-0.006208,0.001495,-0.002312,-0.002411,-0.026226,0.783964,-1.280606,0.095106,-0.016343,-0.017449,1.000000,0.000007,-0.000012,-0.000012,0.999991,-0.002304,-0.001148,0.003230,-0.264390,-0.130724,0.370465,0.999976,0.006466,0.002282,-0.006455,0.999969,-0.004614,-0.002311,0.004600,0.999987
08735,9.555179,-1.645925,-1.760951,-0.019409,-0.015870,0.041796,0.004065,0.004617,-0.005257,-0.027638,0.777938,-1.278235,0.095551,-0.016461,-0.017612,1.000000,0.000020,0.000023,-0.000026,0.999991,-0.002293,-0.001170,0.003226,-0.263240,-0.133192,0.370007,0.999976,0.006458,0.002325,-0.006447,0.999969,-0.004594,-0.002354,0.004579,0.999987
08736,9.533185,-1.639508,-1.751913,-0.014862,-0.014760,0.017794,0.006400,0.013867,-0.004811,-0.024240,0.781199,-1.274057,0.095330,-0.016397,-0.017526,1.000000,0.000032,0.000069,-0.000024,0.999992,-0.002246,-0.001222,0.003219,-0.257861,-0.139224,0.369239,0.999976,0.006444,0.002430,-0.006433,0.999969,-0.004500,-0.002459,0.004485,0.999987
08737,9.527962,-1.632598,-1.696946,0.025555,0.018485,0.001897,0.000904,0.006681,-0.005858,-0.027756,0.783981,-1.278205,0.095279,-0.016329,-0.016973,1.000000,0.000005,0.000033,-0.000029,0.999992,-0.002235,-0.001253,0.003199,-0.256584,-0.142786,0.366887,0.999976,0.006403,0.002492,-0.006392,0.999970,-0.004478,-0.002521,0.004462,0.999987
08738,9.497570,-1.626143,-1.711183,0.012173,0.003580,-0.026158,-0.001618,0.006664,-0.007622,-0.023961,0.780169,-1.270099,0.094975,-0.016265,-0.017115,1.000000,-0.000008,0.000033,-0.000038,0.999992,-0.002234,-0.001290,0.003167,-0.256493,-0.146957,0.363212,0.999977,0.006339,0.002565,-0.006328,0.999970,-0.004477,-0.002593,0.004460,0.999987
08739,9.503279,-1.631907,-1.764597,-0.027725,-0.029955,-0.010260,-0.004804,0.005271,-0.005919,-0.027012,0.776899,-1.277134,0.095032,-0.016322,-0.017648,1.000000,-0.000024,0.000026,-0.000030,0.999992,-0.002235,-0.001316,0.003120,-0.256581,-0.149980,0.357832,0.999977,0.006245,0.002618,-0.006234,0.999971,-0.004478,-0.002646,0.004462,0.999987
08740,9.514568,-1.654540,-1.716316,-0.007555,0.020351,-0.004029,-0.008419,0.000181,-0.004042,-0.032043,0.778680,-1.270324,0.095145,-0.016548,-0.017163,1.000000,-0.000042,0.000001,-0.000020,0.999992,-0.002251,-0.001316,0.003058,-0.258382,-0.150040,0.350786,0.999978,0.006122,0.002619,-0.006110,0.999971,-0.004510,-0.002646,0.004493,0.999986
08741,9.528496,-1.660356,-1.747406,-0.029512,0.002872,0.015922,-0.003782,-0.000025,-0.002645,-0.021828,0.782215,-1.274414,0.095285,-0.016605,-0.017474,1.000000,-0.000019,-0.000000,-0.000013,0.999992,-0.002257,-0.001312,0.003018,-0.259095,-0.149581,0.346151,0.999978,0.006041,0.002611,-0.006030,0.999972,-0.004522,-0.002638,0.004506,0.999986
08742,9.497948,-1.654077,-1.762359,-0.042906,-0.012024,-0.012131,-0.003332,-0.000496,-0.006025,-0.026240,0.777747,-1.281861,0.094979,-0.016544,-0.017623,1.000000,-0.000017,-0.000002,-0.000030,0.999992,-0.002277,-0.001318,0.002979,-0.261406,-0.150218,0.341680,0.999979,0.005963,0.002622,-0.005951,0.999972,-0.004562,-0.002649,0.004547,0.999986
08743,9.506389,-1.653287,-1.739593,-0.024702,0.003882,-0.008079,0.001946,-0.002782,-0.005790,-0.030570,0.783485,-1.278754,0.095064,-0.016535,-0.017395,1.000000,0.000010,-0.000014,-0.000029,0.999992,-0.002297,-0.001315,0.002971,-0.263646,-0.149879,0.340813,0.999979,0.005948,0.002616,-0.005936,0.999972,-0.004601,-0.002643,0.004586,0.999986
08744,9.503594,-1.629437,-1.765185,-0.026394,-0.030694,-0.010259,0.001922,-0.006239,-0.003485,-0.026067,0.780010,-1.272085,0.095036,-0.016296,-0.017649,1.000000,0.000010,-0.000031,-0.000017,0.999992,-0.002319,-0.001291,0.002956,-0.266159,-0.147201,0.339108,0.999979,0.005918,0.002569,-0.005907,0.999972,-0.004645,-0.002597,0.004630,0.999986
08745,9.486936,-1.669897,-1.707127,-0.017950,0.039244,-0.029900,0.001946,-0.002782,-0.005790,-0.030077,0.782272,-1.278878,0.094869,-0.016702,-0.017070,1.000000,0.000010,-0.000014,-0.000029,0.999992,-0.002338,-0.001289,0.002949,-0.268398,-0.146862,0.338241,0.999979,0.005903,0.002563,-0.005891,0.999972,-0.004684,-0.002591,0.004669,0.999986
08746,9.511977,-1.628199,-1.743153,-0.007926,-0.014929,-0.006208,0.005129,-0.009012,-0.008393,-0.028474,0.785368,-1.278276,0.095120,-0.016286,-0.017428,1.000000,0.000026,-0.000045,-0.000042,0.999992,-0.002385,-0.001272,0.002957,-0.273705,-0.144997,0.339170,0.999979,0.005920,0.002531,-0.005907,0.999971,-0.004777,-0.002559,0.004762,0.999985
08747,9.484050,-1.675455,-1.785070,-0.075540,-0.010460,-0.018045,0.000021,-0.004168,-0.003205,-0.031323,0.780564,-1.275290,0.094841,-0.016756,-0.017849,1.000000,0.000000,-0.000021,-0.000016,0.999992,-0.002402,-0.001255,0.002939,-0.275727,-0.143060,0.337104,0.999980,0.005884,0.002497,-0.005871,0.999971,-0.004812,-0.002525,0.004798,0.999985
08748,9.550906,-1.662915,-1.757846,-0.031953,0.000593,0.039931,0.000899,-0.000942,-0.006758,-0.029894,0.778306,-1.275902,0.095509,-0.016632,-0.017578,1.000000,0.000004,-0.000005,-0.000034,0.999992,-0.002421,-0.001263,0.002912,-0.277877,-0.143947,0.334003,0.999980,0.005829,0.002512,-0.005817,0.999971,-0.004850,-0.002541,0.004835,0.999985
08749,9.495404,-1.697480,-1.737148,-0.055121,0.039718,-0.011809,0.009172,-0.000223,-0.010445,-0.019121,0.779946,-1.275602,0.094953,-0.016979,-0.017372,1.000000,0.000046,-0.000001,-0.000052,0.999992,-0.002439,-0.001286,0.002941,-0.279960,-0.146503,0.337378,0.999979,0.005888,0.002557,-0.005876,0.999971,-0.004886,-0.002586,0.004871,0.999985
08750,9.506688,-1.649433,-1.741612,-0.022850,0.002840,-0.008074,0.013595,-0.002276,-0.008962,-0.030108,0.782966,-1.277611,0.095066,-0.016497,-0.017416,1.000000,0.000068,-0.000011,-0.000045,0.999992,-0.002453,-0.001294,0.002999,-0.281535,-0.147402,0.343987,0.999979,0.006004,0.002573,-0.005991,0.999970,-0.004914,-0.002602,0.004898,0.999985
08751,9.520714,-1.625035,-1.721008,0.011349,0.000378,-0.002159,0.018018,-0.004328,-0.007478,-0.033553,0.782667,-1.268683,0.095207,-0.016252,-0.017209,1.000000,0.000090,-0.000022,-0.000037,0.999991,-0.002464,-0.001291,0.003072,-0.282813,-0.147064,0.352370,0.999978,0.006150,0.002567,-0.006137,0.999969,-0.004936,-0.002597,0.004920,0.999985
08752,9.531804,-1.607503,-1.777334,-0.012616,-0.051456,0.015612,0.015047,-0.003874,-0.005862,-0.028032,0.780880,-1.276373,0.095318,-0.016076,-0.017773,1.000000,0.000075,-0.000019,-0.000029,0.999991,-0.002474,-0.001286,0.003107,-0.283900,-0.146459,0.356422,0.999977,0.006221,0.002556,-0.006208,0.999968,-0.004955,-0.002587,0.004939,0.999984
08753,9.498563,-1.618164,-1.713235,0.016108,0.001398,-0.026163,0.007888,-0.003687,-0.009021,-0.018322,0.781141,-1.278825,0.094985,-0.016185,-0.017131,1.000000,0.000039,-0.000018,-0.000045,0.999991,-0.002500,-0.001291,0.003132,-0.286947,-0.147030,0.359273,0.999977,0.006270,0.002566,-0.006258,0.999968,-0.005008,-0.002597,0.004992,0.999984
08754,9.517979,-1.600252,-1.747041,0.010173,-0.034443,-0.004345,0.016308,-0.011486,-0.005879,-0.020507,0.779952,-1.278273,0.095180,-0.016004,-0.017466,1.000000,0.000082,-0.000057,-0.000029,0.999991,-0.002531,-0.001255,0.003213,-0.290546,-0.142858,0.368494,0.999976,0.006431,0.002493,-0.006419,0.999967,-0.005071,-0.002526,0.005055,0.999984
08755,9.534620,-1.629535,-1.753408,-0.009818,-0.017508,0.017796,0.014428,-0.005959,-0.007905,-0.025952,0.786735,-1.275387,0.095346,-0.016298,-0.017532,1.000000,0.000072,-0.000030,-0.000040,0.999991,-0.002554,-0.001248,0.003270,-0.293128,-0.142034,0.375082,0.999975,0.006546,0.002479,-0.006534,0.999966,-0.005116,-0.002512,0.005100,0.999984
08756,9.490026,-1.647245,-1.789409,-0.057141,-0.030075,-0.016166,0.013146,-0.009423,-0.006480,-0.024445,0.786880,-1.282818,0.094901,-0.016474,-0.017891,1.000000,0.000066,-0.000047,-0.000032,0.999990,-0.002586,-0.001221,0.003333,-0.296757,-0.138977,0.382246,0.999975,0.006671,0.002426,-0.006659,0.999964,-0.005179,-0.002460,0.005163,0.999984
08757,9.506761,-1.646359,-1.744124,-0.020968,0.001856,-0.008070,0.019708,-0.008237,-0.007670,-0.027798,0.787605,-1.279202,0.095068,-0.016466,-0.017439,1.000000,0.000099,-0.000041,-0.000038,0.999990,-0.002609,-0.001205,0.003417,-0.299400,-0.137110,0.391963,0.999974,0.006841,0.002393,-0.006828,0.999963,-0.005225,-0.002429,0.005209,0.999983
08758,9.534542,-1.628420,-1.754864,-0.008980,-0.017909,0.017796,0.016096,-0.005705,-0.004893,-0.028452,0.785191,-1.280296,0.095346,-0.016285,-0.017547,1.000000,0.000080,-0.000029,-0.000024,0.999990,-0.002619,-0.001188,0.003479,-0.300609,-0.135092,0.399037,0.999973,0.006964,0.002358,-0.006952,0.999962,-0.005247,-0.002394,0.005230,0.999983
08759,9.506738,-1.645784,-1.744791,-0.020432,0.001590,-0.008069,0.013574,-0.005724,-0.006656,-0.023998,0.779978,-1.279406,0.095067,-0.016460,-0.017446,1.000000,0.000068,-0.000029,-0.000033,0.999990,-0.002638,-0.001178,0.003531,-0.302722,-0.133863,0.405001,0.999972,0.007069,0.002336,-0.007056,0.999961,-0.005283,-0.002374,0.005267,0.999983
08760,9.492873,-1.639169,-1.714192,0.002066,0.018745,-0.028026,0.014621,-0.007561,-0.005686,-0.026149,0.787602,-1.274079,0.094929,-0.016393,-0.017140,1.000000,0.000073,-0.000038,-0.000028,0.999989,-0.002657,-0.001156,0.003586,-0.304935,-0.131428,0.411234,0.999972,0.007177,0.002294,-0.007165,0.999960,-0.005322,-0.002332,0.005305,0.999983
08761,9.509534,-1.567681,-1.721557,0.050257,-0.036502,-0.022450,0.009791,-0.005753,-0.009299,-0.028776,0.782084,-1.281473,0.095095,-0.015680,-0.017214,1.000000,0.000049,-0.000029,-0.000046,0.999989,-0.002689,-0.001155,0.003622,-0.308633,-0.131259,0.415370,0.999971,0.007249,0.002291,-0.007237,0.999959,-0.005387,-0.002330,0.005370,0.999983
08762,9.534523,-1.626781,-1.756491,-0.007929,-0.018491,0.017796,-0.000191,-0.006016,-0.003112,-0.029888,0.780549,-1.276659,0.095346,-0.016269,-0.017562,1.000000,-0.000001,-0.000030,-0.000016,0.999989,-0.002714,-0.001132,0.003596,-0.311482,-0.128543,0.412373,0.999972,0.007197,0.002243,-0.007185,0.999959,-0.005436,-0.002283,0.005420,0.999983
08763,9.481593,-1.614691,-1.763841,-0.017105,-0.032107,-0.034260,0.000664,-0.006247,-0.004361,-0.024031,0.776015,-1.275872,0.094816,-0.016149,-0.017636,1.000000,0.000003,-0.000031,-0.000022,0.999989,-0.002742,-0.001111,0.003583,-0.314684,-0.126218,0.410981,0.999972,0.007173,0.002203,-0.007161,0.999959,-0.005492,-0.002242,0.005476,0.999982
08764,9.512189,-1.619915,-1.749703,-0.003144,-0.017541,-0.006209,-0.006304,-0.007675,-0.005299,-0.028268,0.785716,-1.276061,0.095122,-0.016202,-0.017493,1.000000,-0.000032,-0.000038,-0.000026,0.999989,-0.002785,-0.001089,0.003532,-0.319561,-0.123698,0.405045,0.999973,0.007069,0.002159,-0.007057,0.999960,-0.005577,-0.002198,0.005562,0.999982
08765,9.498210,-1.643230,-1.771069,-0.036822,-0.015347,-0.012111,-0.010323,-0.005386,-0.004652,-0.023402,0.782737,-1.278549,0.094982,-0.016435,-0.017707,1.000000,-0.000052,-0.000027,-0.000023,0.999989,-0.002824,-0.001073,0.003466,-0.324070,-0.121877,0.397496,0.999974,0.006938,0.002127,-0.006925,0.999960,-0.005656,-0.002166,0.005641,0.999982
08766,9.539847,-1.631258,-1.812954,-0.047069,-0.052441,0.033709,-0.008635,-0.001679,-0.003948,-0.025647,0.780175,-1.273953,0.095398,-0.016315,-0.018128,1.000000,-0.000043,-0.000008,-0.000020,0.999990,-0.002847,-0.001067,0.003401,-0.326694,-0.121214,0.390124,0.999975,0.006809,0.002116,-0.006797,0.999961,-0.005702,-0.002154,0.005687,0.999982
08767,9.512315,-1.718900,-1.749790,-0.070498,0.054238,0.010378,0.001730,0.002994,-0.004805,-0.032181,0.783845,-1.278095,0.095122,-0.017191,-0.017499,1.000000,0.000009,0.000015,-0.000024,0.999990,-0.002844,-0.001082,0.003387,-0.326323,-0.122844,0.388481,0.999975,0.006780,0.002144,-0.006768,0.999961,-0.005695,-0.002183,0.005681,0.999981
08768,9.570733,-1.635927,-1.797791,-0.032858,-0.037989,0.061760,0.008527,0.001862,-0.009288,-0.023703,0.775156,-1.272430,0.095706,-0.016363,-0.017980,1.000000,0.000043,0.000009,-0.000046,0.999990,-0.002852,-0.001108,0.003397,-0.327208,-0.125864,0.389622,0.999974,0.006800,0.002197,-0.006787,0.999961,-0.005711,-0.002235,0.005696,0.999981
08769,9.565466,-1.558277,-1.795340,0.019569,-0.091976,0.043314,0.004927,0.023091,-0.007031,-0.029878,0.784689,-1.278173,0.095652,-0.015586,-0.017965,1.000000,0.000025,0.000115,-0.000035,0.999990,-0.002784,-0.001201,0.003383,-0.319441,-0.136598,0.388052,0.999974,0.006773,0.002384,-0.006759,0.999962,-0.005575,-0.002422,0.005559,0.999982
08770,9.555090,-1.604681,-1.787791,-0.012102,-0.055392,0.039608,-0.005167,0.038257,-0.012292,-0.022633,0.781701,-1.275470,0.095546,-0.016053,-0.017896,1.000000,-0.000026,0.000191,-0.000061,0.999990,-0.002693,-0.001367,0.003307,-0.309148,-0.155635,0.379370,0.999974,0.006621,0.002716,-0.006606,0.999964,-0.005396,-0.002752,0.005378,0.999982
08771,9.528289,-1.620919,-1.773427,-0.023551,-0.035881,0.013750,-0.005768,0.047254,-0.015746,-0.027726,0.786241,-1.270407,0.095277,-0.016217,-0.017756,1.000000,-0.000029,0.000236,-0.000079,0.999990,-0.002586,-0.001577,0.003228,-0.296899,-0.179780,0.370420,0.999974,0.006465,0.003138,-0.006449,0.999966,-0.005182,-0.003171,0.005161,0.999982
08772,9.482093,-1.684823,-1.777116,-0.084874,0.004405,-0.019852,0.003083,0.043167,-0.012775,-0.025301,0.778614,-1.276055,0.094816,-0.016854,-0.017792,1.000000,0.000015,0.000216,-0.000064,0.999990,-0.002473,-0.001761,0.003197,-0.284082,-0.200863,0.366895,0.999973,0.006403,0.003506,-0.006386,0.999967,-0.004958,-0.003537,0.004936,0.999982
08773,9.499678,-1.683192,-1.727662,-0.048667,0.036303,-0.011762,0.017670,0.028704,-0.013837,-0.028951,0.781042,-1.284954,0.094993,-0.016837,-0.017292,1.000000,0.000088,0.000144,-0.000069,0.999990,-0.002394,-0.001898,0.003247,-0.275062,-0.216588,0.372550,0.999972,0.006502,0.003780,-0.006484,0.999967,-0.004801,-0.003811,0.004776,0.999981
08774,9.497446,-1.628905,-1.698574,0.005778,0.016668,-0.028023,0.022266,0.021595,-0.007824,-0.022204,0.777219,-1.270794,0.094972,-0.016291,-0.016998,1.000000,0.000111,0.000108,-0.000039,0.999990,-0.002311,-0.001987,0.003320,-0.265583,-0.226852,0.380977,0.999970,0.006649,0.003959,-0.006631,0.999967,-0.004635,-0.003990,0.004609,0.999981
08775,9.503433,-1.604674,-1.698851,0.022003,-0.001859,-0.026175,0.022725,0.013500,-0.012094,-0.032492,0.782284,-1.282801,0.095032,-0.016051,-0.016997,1.000000,0.000114,0.000067,-0.000060,0.999989,-0.002272,-0.002064,0.003405,-0.261103,-0.235648,0.390724,0.999968,0.006819,0.004113,-0.006801,0.999966,-0.004557,-0.004144,0.004529,0.999981
08776,9.500905,-1.550511,-1.671141,0.076443,-0.021476,-0.042442,0.010195,0.009750,-0.005374,-0.026883,0.786918,-1.274145,0.095008,-0.015507,-0.016717,1.000000,0.000051,0.000049,-0.000027,0.999989,-0.002236,-0.002103,0.003427,-0.257095,-0.240118,0.393295,0.999968,0.006864,0.004191,-0.006845,0.999967,-0.004487,-0.004221,0.004458,0.999981
08777,9.476177,-1.621273,-1.686542,0.010839,0.017498,-0.052029,0.004091,0.000457,-0.008458,-0.029271,0.784353,-1.271527,0.094761,-0.016216,-0.016866,1.000000,0.000020,0.000002,-0.000042,0.999989,-0.002251,-0.002121,0.003430,-0.258831,-0.242169,0.393579,0.999967,0.006869,0.004227,-0.006850,0.999966,-0.004517,-0.004258,0.004488,0.999981
08778,9.518031,-1.609332,-1.727557,0.000589,-0.019542,-0.006213,-0.003143,0.005514,-0.002914,-0.028489,0.790892,-1.278524,0.095180,-0.016095,-0.017278,1.000000,-0.000016,0.000028,-0.000015,0.999989,-0.002243,-0.002137,0.003386,-0.257815,-0.243988,0.388592,0.999968,0.006782,0.004258,-0.006763,0.999967,-0.004500,-0.004289,0.004471,0.999981
08779,9.507066,-1.656451,-1.722689,-0.031071,0.017075,-0.009905,0.002973,-0.000449,-0.001613,-0.028848,0.780538,-1.278181,0.095071,-0.016565,-0.017227,1.000000,0.000015,-0.000002,-0.000008,0.999990,-0.002239,-0.002127,0.003378,-0.257345,-0.242925,0.387645,0.999968,0.006766,0.004240,-0.006747,0.999967,-0.004491,-0.004270,0.004463,0.999981
08780,9.490324,-1.626704,-1.717056,-0.010583,-0.000132,-0.032065,0.004878,-0.002517,-0.001889,-0.025759,0.775153,-1.281983,0.094903,-0.016268,-0.017170,1.000000,0.000024,-0.000013,-0.000009,0.999990,-0.002242,-0.002111,0.003378,-0.257757,-0.241045,0.387686,0.999968,0.006766,0.004207,-0.006747,0.999967,-0.004499,-0.004237,0.004470,0.999981
08781,9.498686,-1.656509,-1.746040,-0.048514,0.000808,-0.013944,0.007426,-0.006664,-0.003324,-0.022531,0.785493,-1.278014,0.094987,-0.016566,-0.017458,1.000000,0.000037,-0.000033,-0.000017,0.999989,-0.002260,-0.002086,0.003399,-0.259774,-0.238116,0.389987,0.999968,0.006806,0.004156,-0.006788,0.999967,-0.004534,-0.004187,0.004506,0.999981
08782,9.501456,-1.679693,-1.721276,-0.046180,0.035036,-0.011745,0.011660,-0.007101,-0.004055,-0.025106,0.780506,-1.278874,0.095015,-0.016798,-0.017210,1.000000,0.000058,-0.000036,-0.000020,0.999989,-0.002275,-0.002059,0.003453,-0.261533,-0.234996,0.396229,0.999968,0.006915,0.004101,-0.006897,0.999966,-0.004565,-0.004133,0.004536,0.999981
08783,9.504050,-1.602166,-1.697768,0.024187,-0.002969,-0.026180,0.010400,-0.007112,-0.004937,-0.030611,0.785737,-1.275470,0.095041,-0.016023,-0.016975,1.000000,0.000052,-0.000036,-0.000025,0.999989,-0.002296,-0.002037,0.003489,-0.263955,-0.232523,0.400389,0.999967,0.006988,0.004058,-0.006969,0.999965,-0.004607,-0.004090,0.004578,0.999981
08784,9.512320,-1.631940,-1.727283,-0.013726,-0.002007,-0.008057,0.003604,-0.013612,-0.001353,-0.020455,0.776157,-1.276524,0.095124,-0.016320,-0.017267,1.000000,0.000018,-0.000068,-0.000007,0.999989,-0.002337,-0.001979,0.003494,-0.268542,-0.225874,0.400896,0.999968,0.006997,0.003942,-0.006978,0.999965,-0.004687,-0.003975,0.004659,0.999981
08785,9.531581,-1.614380,-1.761663,-0.019744,-0.037835,0.013751,-0.000609,-0.009718,-0.002931,-0.023716,0.782383,-1.284010,0.095316,-0.016145,-0.017612,1.000000,-0.000003,-0.000049,-0.000015,0.999989,-0.002373,-0.001942,0.003477,-0.272704,-0.221558,0.398987,0.999968,0.006964,0.003867,-0.006945,0.999965,-0.004760,-0.003900,0.004733,0.999981
08786,9.517500,-1.607914,-1.731800,0.002814,-0.020726,-0.006216,-0.002746,-0.012956,-0.000256,-0.033849,0.781596,-1.286739,0.095176,-0.016079,-0.017312,1.000000,-0.000014,-0.000065,-0.000001,0.999989,-0.002412,-0.001880,0.003468,-0.277143,-0.214484,0.397966,0.999969,0.006946,0.003743,-0.006928,0.999964,-0.004837,-0.003777,0.004811,0.999981
08787,9.534151,-1.667689,-1.789902,-0.073303,-0.018684,0.030038,0.005522,-0.004595,-0.003049,-0.034632,0.783874,-1.273699,0.095342,-0.016678,-0.017897,1.000000,0.000028,-0.000023,-0.000015,0.999989,-0.002424,-0.001861,0.003477,-0.278507,-0.212294,0.398981,0.999969,0.006963,0.003705,-0.006945,0.999964,-0.004861,-0.003739,0.004835,0.999981
08788,9.550929,-1.666871,-1.743913,-0.037110,0.013184,0.038119,0.010816,0.004215,-0.004228,-0.027344,0.784663,-1.280827,0.095509,-0.016670,-0.017442,1.000000,0.000054,0.000021,-0.000021,0.999989,-0.002403,-0.001879,0.003481,-0.276146,-0.214402,0.399423,0.999969,0.006971,0.003742,-0.006953,0.999964,-0.004820,-0.003775,0.004793,0.999981
08789,9.523160,-1.583630,-1.733901,0.019505,-0.039564,-0.004378,0.012521,0.011383,-0.005835,-0.033242,0.784213,-1.271028,0.095230,-0.015838,-0.017345,1.000000,0.000063,0.000057,-0.000029,0.999989,-0.002362,-0.001927,0.003513,-0.271418,-0.219846,0.403069,0.999968,0.007035,0.003837,-0.007017,0.999964,-0.004737,-0.003870,0.004710,0.999981
08790,9.565196,-1.571831,-1.773708,0.009222,-0.076642,0.041434,0.005546,0.017574,-0.005889,-0.027433,0.783984,-1.275517,0.095650,-0.015721,-0.017746,1.000000,0.000028,0.000088,-0.000029,0.999989,-0.002310,-0.001997,0.003495,-0.265479,-0.227904,0.400986,0.999968,0.006998,0.003978,-0.006980,0.999965,-0.004633,-0.004010,0.004606,0.999981
08791,9.574089,-1.570710,-1.748554,0.027470,-0.060787,0.045472,-0.011327,0.029689,-0.009893,-0.021560,0.781342,-1.278259,0.095738,-0.015713,-0.017499,1.000000,-0.000057,0.000148,-0.000049,0.999989,-0.002249,-0.002124,0.003399,-0.258514,-0.242524,0.390030,0.999968,0.006807,0.004233,-0.006788,0.999967,-0.004512,-0.004263,0.004483,0.999981
08792,9.508104,-1.652565,-1.720692,-0.027528,0.015223,-0.009891,-0.011800,0.026707,-0.004205,-0.016427,0.789245,-1.276534,0.095078,-0.016529,-0.017219,1.000000,-0.000059,0.000134,-0.000021,0.999990,-0.002180,-0.002218,0.003309,-0.250623,-0.253380,0.379710,0.999968,0.006627,0.004422,-0.006608,0.999969,-0.004374,-0.004451,0.004345,0.999981
08793,9.486484,-1.676150,-1.761817,-0.079196,0.001465,-0.019803,-0.005640,0.027665,-0.007519,-0.034824,0.783685,-1.282212,0.094862,-0.016766,-0.017631,1.000000,-0.000028,0.000138,-0.000038,0.999990,-0.002111,-0.002330,0.003240,-0.242719,-0.266204,0.371864,0.999968,0.006490,0.004646,-0.006470,0.999970,-0.004236,-0.004673,0.004206,0.999980
08794,9.517661,-1.681010,-1.744580,-0.065147,0.016079,0.008245,0.004309,0.021028,-0.009075,-0.029477,0.782618,-1.276512,0.095174,-0.016814,-0.017456,1.000000,0.000022,0.000105,-0.000045,0.999990,-0.002059,-0.002421,0.003237,-0.236899,-0.276665,0.371463,0.999967,0.006483,0.004829,-0.006463,0.999971,-0.004135,-0.004855,0.004103,0.999980
08795,9.515180,-1.626915,-1.716236,-0.010754,-0.003570,-0.008054,0.007423,0.019687,-0.002959,-0.033475,0.779026,-1.276005,0.095150,-0.016270,-0.017172,1.000000,0.000037,0.000098,-0.000015,0.999990,-0.001986,-0.002488,0.003234,-0.228497,-0.284365,0.371177,0.999967,0.006478,0.004963,-0.006458,0.999971,-0.003988,-0.004989,0.003956,0.999980
08796,9.543304,-1.609066,-1.724833,0.001207,-0.023387,0.017788,0.006787,0.014138,-0.002690,-0.022167,0.784632,-1.275839,0.095432,-0.016091,-0.017256,1.000000,0.000034,0.000071,-0.000013,0.999990,-0.001932,-0.002534,0.003224,-0.222311,-0.289701,0.370010,0.999966,0.006458,0.005056,-0.006438,0.999972,-0.003880,-0.005081,0.003847,0.999980
08797,9.546421,-1.632176,-1.698108,0.003517,0.010860,0.019992,0.008502,0.013679,-0.005185,-0.025158,0.779989,-1.278358,0.095463,-0.016324,-0.016988,1.000000,0.000043,0.000068,-0.000026,0.999990,-0.001885,-0.002588,0.003234,-0.216987,-0.295835,0.371130,0.999966,0.006477,0.005163,-0.006458,0.999972,-0.003787,-0.005188,0.003754,0.999979
08798,9.488276,-1.644045,-1.701543,-0.021610,0.015706,-0.033894,0.011645,0.008166,-0.002267,-0.029528,0.773284,-1.282038,0.094882,-0.016441,-0.017020,1.000000,0.000058,0.000041,-0.000011,0.999990,-0.001845,-0.002608,0.003279,-0.212363,-0.298162,0.376326,0.999965,0.006568,0.005204,-0.006549,0.999972,-0.003706,-0.005228,0.003672,0.999980
08799,9.519005,-1.649785,-1.685772,-0.007595,0.030270,-0.005848,0.013741,0.004490,-0.000321,-0.025467,0.778788,-1.276013,0.095190,-0.016497,-0.016861,1.000000,0.000069,0.000022,-0.000002,0.999989,-0.001806,-0.002612,0.003318,-0.207975,-0.298576,0.380752,0.999964,0.006645,0.005211,-0.006626,0.999971,-0.003630,-0.005235,0.003595,0.999980
08800,9.516089,-1.596303,-1.659113,0.046825,0.010566,-0.022157,0.013963,-0.001291,-0.001299,-0.031904,0.782621,-1.284712,0.095161,-0.015962,-0.016592,1.000000,0.000070,-0.000006,-0.000006,0.999989,-0.001789,-0.002596,0.003368,-0.205951,-0.296828,0.386473,0.999964,0.006745,0.005181,-0.006727,0.999971,-0.003594,-0.005205,0.003559,0.999980
08801,9.485469,-1.590669,-1.674183,0.033330,-0.004293,-0.050203,0.008903,-0.004799,-0.002522,-0.032596,0.784205,-1.272702,0.094855,-0.015907,-0.016740,1.000000,0.000045,-0.000024,-0.000013,0.999989,-0.001795,-0.002575,0.003393,-0.206723,-0.294337,0.389335,0.999964,0.006795,0.005137,-0.006777,0.999971,-0.003608,-0.005162,0.003573,0.999980
08802,9.482831,-1.668001,-1.698599,-0.036480,0.033507,-0.035720,0.006764,-0.008040,0.000152,-0.023491,0.780671,-1.276009,0.094829,-0.016679,-0.016983,1.000000,0.000034,-0.000040,0.000001,0.999989,-0.001808,-0.002532,0.003398,-0.208167,-0.289497,0.389868,0.999964,0.006804,0.005053,-0.006786,0.999970,-0.003633,-0.005077,0.003599,0.999981
08803,9.532660,-1.625936,-1.665965,0.027422,0.027259,0.000019,0.001080,-0.006011,-0.002224,-0.028496,0.784173,-1.271975,0.095327,-0.016260,-0.016657,1.000000,0.000005,-0.000030,-0.000011,0.999989,-0.001827,-0.002506,0.003385,-0.210369,-0.286407,0.388471,0.999965,0.006780,0.004999,-0.006762,0.999970,-0.003672,-0.005023,0.003638,0.999981
08804,9.479945,-1.674905,-1.776651,-0.094154,-0.016005,-0.023814,0.004647,-0.007823,0.000515,-0.034258,0.787138,-1.280088,0.094800,-0.016748,-0.017763,1.000000,0.000023,-0.000039,0.000003,0.999990,-0.001841,-0.002460,0.003398,-0.211964,-0.281232,0.389954,0.999965,0.006806,0.004908,-0.006788,0.999970,-0.003699,-0.004933,0.003666,0.999981
08805,9.504760,-1.673989,-1.708545,-0.039891,0.031827,-0.011707,0.009527,-0.010336,-0.001370,-0.027517,0.778118,-1.274237,0.095048,-0.016740,-0.017081,1.000000,0.000048,-0.000052,-0.000007,0.999989,-0.001862,-0.002415,0.003430,-0.214352,-0.276013,0.393582,0.999965,0.006869,0.004817,-0.006851,0.999970,-0.003741,-0.004843,0.003708,0.999981
08806,9.507355,-1.627008,-1.736645,-0.025754,-0.021088,-0.012086,0.010374,-0.002935,-0.001730,-0.025207,0.781370,-1.278597,0.095074,-0.016270,-0.017366,1.000000,0.000052,-0.000015,-0.000009,0.999989,-0.001860,-0.002397,0.003452,-0.214043,-0.273964,0.396125,0.999965,0.006914,0.004782,-0.006896,0.999969,-0.003736,-0.004807,0.003703,0.999982
08807,9.507349,-1.627021,-1.736665,-0.025494,-0.021235,-0.012086,0.010586,-0.001084,-0.001820,-0.030036,0.782975,-1.273097,0.095073,-0.016270,-0.017367,1.000000,0.000053,-0.000005,-0.000009,0.999989,-0.001849,-0.002386,0.003482,-0.212855,-0.272707,0.399491,0.999964,0.006972,0.004760,-0.006955,0.999969,-0.003715,-0.004785,0.003682,0.999982
08808,9.549088,-1.655704,-1.673491,0.008629,0.043733,0.022201,0.007400,-0.002487,-0.000119,-0.025408,0.772745,-1.276280,0.095491,-0.016556,-0.016734,1.000000,0.000037,-0.000012,-0.000001,0.999989,-0.001843,-0.002363,0.003497,-0.212156,-0.270057,0.401286,0.999964,0.007004,0.004713,-0.006986,0.999969,-0.003703,-0.004739,0.003670,0.999982
08809,9.507261,-1.596756,-1.684838,0.031232,-0.006641,-0.026202,0.005939,0.006738,-0.002337,-0.027706,0.775350,-1.277714,0.095072,-0.015968,-0.016852,1.000000,0.000030,0.000034,-0.000012,0.999989,-0.001813,-0.002382,0.003498,-0.208762,-0.272215,0.401365,0.999964,0.007005,0.004751,-0.006988,0.999969,-0.003644,-0.004776,0.003610,0.999982
08810,9.518802,-1.680174,-1.739148,-0.060761,0.013832,0.008277,-0.001239,0.003444,-0.003194,-0.028418,0.778980,-1.278542,0.095187,-0.016803,-0.017393,1.000000,-0.000006,0.000017,-0.000016,0.999989,-0.001804,-0.002390,0.003471,-0.207694,-0.273198,0.398285,0.999964,0.006951,0.004768,-0.006934,0.999969,-0.003625,-0.004793,0.003592,0.999982
08811,9.518775,-1.649573,-1.687276,-0.004317,0.028539,-0.005841,0.004256,0.003025,-0.003039,-0.028211,0.779508,-1.272802,0.095187,-0.016497,-0.016875,1.000000,0.000021,0.000015,-0.000015,0.999990,-0.001792,-0.002398,0.003468,-0.206258,-0.274123,0.397859,0.999964,0.006944,0.004784,-0.006927,0.999970,-0.003600,-0.004809,0.003567,0.999982
08812,9.535458,-1.608740,-1.745768,-0.012418,-0.041676,0.013748,0.004880,-0.002513,-0.001884,-0.023956,0.776354,-1.278409,0.095355,-0.016088,-0.017457,1.000000,0.000024,-0.000013,-0.000009,0.999990,-0.001794,-0.002382,0.003470,-0.206481,-0.272211,0.398099,0.999965,0.006948,0.004751,-0.006931,0.999969,-0.003604,-0.004776,0.003571,0.999982
08813,9.535478,-1.608539,-1.745847,-0.012157,-0.041824,0.013747,0.006807,-0.001122,-0.004469,-0.026093,0.782586,-1.278625,0.095355,-0.016087,-0.017458,1.000000,0.000034,-0.000006,-0.000022,0.999989,-0.001797,-0.002380,0.003483,-0.206878,-0.272009,0.399638,0.999964,0.006975,0.004747,-0.006958,0.999969,-0.003611,-0.004772,0.003577,0.999982
08814,9.485441,-1.619913,-1.727684,-0.019317,-0.020991,-0.036093,0.009359,-0.005269,-0.005899,-0.024215,0.775324,-1.276581,0.094854,-0.016201,-0.017275,1.000000,0.000047,-0.000026,-0.000029,0.999989,-0.001816,-0.002366,0.003524,-0.209070,-0.270420,0.404291,0.999964,0.007056,0.004720,-0.007039,0.999969,-0.003649,-0.004745,0.003616,0.999982
08815,9.502313,-1.679569,-1.785418,-0.095403,-0.018860,0.000221,0.020571,-0.011887,-0.006563,-0.019995,0.778217,-1.280417,0.095024,-0.016797,-0.017850,1.000000,0.000103,-0.000059,-0.000033,0.999989,-0.001847,-0.002333,0.003615,-0.212601,-0.266629,0.414731,0.999963,0.007238,0.004654,-0.007221,0.999967,-0.003711,-0.004680,0.003677,0.999982
08816,9.554993,-1.660538,-1.727616,-0.029347,0.009210,0.038150,0.025017,-0.010466,-0.007382,-0.030367,0.778997,-1.277798,0.095550,-0.016607,-0.017273,1.000000,0.000125,-0.000052,-0.000037,0.999989,-0.001868,-0.002305,0.003745,-0.215103,-0.263354,0.429609,0.999961,0.007498,0.004596,-0.007481,0.999965,-0.003754,-0.004624,0.003720,0.999982
08817,9.538150,-1.630626,-1.722556,-0.008923,-0.008060,0.015959,0.031370,-0.011110,-0.008474,-0.027369,0.788986,-1.277548,0.095382,-0.016308,-0.017223,1.000000,0.000157,-0.000056,-0.000042,0.999988,-0.001890,-0.002282,0.003889,-0.217599,-0.260624,0.446168,0.999959,0.007787,0.004549,-0.007770,0.999963,-0.003798,-0.004578,0.003762,0.999982
08818,9.521303,-1.600815,-1.717411,0.011506,-0.025293,-0.006233,0.023515,-0.008150,-0.004978,-0.025384,0.780178,-1.271502,0.095213,-0.016009,-0.017172,1.000000,0.000118,-0.000041,-0.000025,0.999988,-0.001901,-0.002256,0.003986,-0.218856,-0.257674,0.457303,0.999958,0.007981,0.004497,-0.007964,0.999961,-0.003820,-0.004528,0.003784,0.999983
08819,9.562992,-1.589133,-1.759197,0.001222,-0.062412,0.039573,0.012980,-0.007790,-0.008664,-0.031648,0.778843,-1.273697,0.095630,-0.015894,-0.017589,1.000000,0.000065,-0.000039,-0.000043,0.999987,-0.001934,-0.002245,0.004039,-0.222666,-0.256416,0.463343,0.999957,0.008087,0.004475,-0.008069,0.999960,-0.003886,-0.004507,0.003850,0.999982
08820,9.529784,-1.629888,-1.746723,-0.026138,-0.024419,0.011929,0.005144,-0.001379,-0.007482,-0.034981,0.777645,-1.281920,0.095297,-0.016302,-0.017467,1.000000,0.000026,-0.000007,-0.000037,0.999987,-0.001952,-0.002253,0.004041,-0.224725,-0.257286,0.463555,0.999957,0.008090,0.004490,-0.008073,0.999960,-0.003922,-0.004522,0.003886,0.999982
08821,9.501967,-1.616614,-1.684977,0.018610,0.009967,-0.028030,0.004076,-0.002999,-0.006143,-0.025789,0.777427,-1.267371,0.095019,-0.016169,-0.016849,1.000000,0.000020,-0.000015,-0.000031,0.999987,-0.001971,-0.002251,0.004044,-0.226894,-0.256994,0.463928,0.999957,0.008097,0.004485,-0.008079,0.999960,-0.003960,-0.004517,0.003924,0.999982
08822,9.510445,-1.646230,-1.713815,-0.019305,0.010963,-0.009866,0.006385,-0.004819,-0.004286,-0.021815,0.776511,-1.277691,0.095105,-0.016464,-0.017136,1.000000,0.000032,-0.000024,-0.000021,0.999987,-0.001987,-0.002236,0.004046,-0.228679,-0.255258,0.464102,0.999957,0.008100,0.004455,-0.008082,0.999959,-0.003991,-0.004487,0.003955,0.999982
08823,9.507613,-1.622644,-1.739315,-0.021136,-0.023576,-0.012081,0.008924,-0.001333,-0.004834,-0.029460,0.781750,-1.278530,0.095076,-0.016228,-0.017393,1.000000,0.000045,-0.000007,-0.000024,0.999987,-0.001989,-0.002234,0.004070,-0.229011,-0.255111,0.466875,0.999957,0.008148,0.004453,-0.008131,0.999959,-0.003997,-0.004485,0.003961,0.999982
08824,9.507463,-1.592038,-1.688158,0.035339,-0.008914,-0.026218,0.006366,-0.008274,-0.001972,-0.030570,0.780546,-1.280768,0.095075,-0.015921,-0.016878,1.000000,0.000032,-0.000041,-0.000010,0.999987,-0.002009,-0.002197,0.004088,-0.231194,-0.250812,0.469004,0.999957,0.008186,0.004377,-0.008168,0.999959,-0.004035,-0.004410,0.003999,0.999982
08825,9.546482,-1.627557,-1.702191,0.011225,0.006775,0.019990,0.002764,-0.002294,-0.001519,-0.026758,0.778791,-1.279716,0.095465,-0.016276,-0.017021,1.000000,0.000014,-0.000011,-0.000008,0.999987,-0.002011,-0.002181,0.004081,-0.231435,-0.248955,0.468111,0.999957,0.008170,0.004345,-0.008152,0.999959,-0.004039,-0.004378,0.004004,0.999982
08826,9.499247,-1.622644,-1.762764,-0.038341,-0.040018,-0.016110,-0.002534,0.007600,-0.000887,-0.021478,0.772362,-1.279035,0.094992,-0.016227,-0.017631,1.000000,-0.000013,0.000038,-0.000004,0.999987,-0.001982,-0.002197,0.004032,-0.228186,-0.250878,0.462523,0.999958,0.008072,0.004379,-0.008055,0.999960,-0.003983,-0.004411,0.003947,0.999982
08827,9.513487,-1.668529,-1.688397,-0.015861,0.044590,-0.007645,-0.001869,0.008976,-0.004356,-0.030115,0.779157,-1.283149,0.095134,-0.016688,-0.016888,1.000000,-0.000009,0.000045,-0.000022,0.999988,-0.001962,-0.002231,0.003995,-0.225795,-0.254779,0.458254,0.999958,0.007998,0.004447,-0.007980,0.999960,-0.003941,-0.004478,0.003905,0.999982
08828,9.471838,-1.639829,-1.750938,-0.049488,-0.020655,-0.041931,0.002750,0.005336,-0.000640,-0.026629,0.785870,-1.278742,0.094718,-0.016398,-0.017512,1.000000,0.000014,0.000027,-0.000003,0.999988,-0.001932,-0.002238,0.003982,-0.222379,-0.255524,0.456825,0.999958,0.007973,0.004460,-0.007956,0.999961,-0.003881,-0.004490,0.003846,0.999983
08829,9.510910,-1.644898,-1.712515,-0.017408,0.009848,-0.009861,0.000230,0.005306,-0.002406,-0.029316,0.786230,-1.282344,0.095108,-0.016450,-0.017128,1.000000,0.000001,0.000027,-0.000012,0.999988,-0.001914,-0.002252,0.003956,-0.220357,-0.257136,0.453879,0.999959,0.007922,0.004488,-0.007904,0.999961,-0.003846,-0.004518,0.003810,0.999983
08830,9.502739,-1.644956,-1.734876,-0.035157,-0.006227,-0.013889,0.000038,0.006912,-0.004628,-0.027601,0.782426,-1.278244,0.095026,-0.016452,-0.017352,1.000000,0.000000,0.000035,-0.000023,0.999988,-0.001901,-0.002278,0.003929,-0.218851,-0.260225,0.450753,0.999959,0.007867,0.004542,-0.007850,0.999962,-0.003820,-0.004572,0.003784,0.999982
08831,9.538974,-1.626483,-1.721909,-0.005177,-0.010120,0.015960,0.002783,0.001162,-0.003833,-0.028705,0.780526,-1.283253,0.095389,-0.016266,-0.017220,1.000000,0.000014,0.000006,-0.000019,0.999988,-0.001899,-0.002283,0.003921,-0.218659,-0.260709,0.449771,0.999959,0.007850,0.004550,-0.007832,0.999962,-0.003816,-0.004580,0.003780,0.999982
08832,9.552882,-1.602099,-1.701118,0.029038,-0.012728,0.021796,0.000877,0.003226,-0.003561,-0.018525,0.775289,-1.270968,0.095528,-0.016023,-0.017013,1.000000,0.000004,0.000016,-0.000018,0.999988,-0.001892,-0.002293,0.003898,-0.217809,-0.261862,0.447212,0.999959,0.007805,0.004570,-0.007788,0.999962,-0.003801,-0.004600,0.003766,0.999982
08833,9.539170,-1.625942,-1.721333,-0.004641,-0.010418,0.015960,0.001279,0.003471,-0.001431,-0.027281,0.785023,-1.273541,0.095391,-0.016260,-0.017215,1.000000,0.000006,0.000017,-0.000007,0.999988,-0.001876,-0.002297,0.003878,-0.215971,-0.262330,0.444927,0.999959,0.007765,0.004579,-0.007748,0.999963,-0.003769,-0.004608,0.003734,0.999982
08834,9.536362,-1.602449,-1.746618,-0.006438,-0.044922,0.013739,-0.003991,-0.001896,-0.002557,-0.032884,0.779708,-1.277917,0.095364,-0.016026,-0.017465,1.000000,-0.000020,-0.000009,-0.000013,0.999988,-0.001890,-0.002283,0.003851,-0.217592,-0.260759,0.441841,0.999960,0.007711,0.004551,-0.007694,0.999963,-0.003798,-0.004580,0.003762,0.999982
08835,9.505934,-1.667062,-1.708785,-0.031672,0.027465,-0.011664,0.002099,-0.003670,0.001950,-0.022931,0.781881,-1.273129,0.095060,-0.016670,-0.017086,1.000000,0.000010,-0.000018,0.000010,0.999988,-0.001886,-0.002250,0.003839,-0.217086,-0.256948,0.440360,0.999960,0.007686,0.004485,-0.007669,0.999963,-0.003789,-0.004514,0.003754,0.999983
08836,9.511334,-1.643509,-1.711493,-0.015483,0.008913,-0.009857,0.005931,-0.004344,-0.000908,-0.028280,0.782769,-1.282354,0.095114,-0.016435,-0.017113,1.000000,0.000030,-0.000022,-0.000005,0.999988,-0.001890,-0.002223,0.003845,-0.217571,-0.253922,0.441077,0.999961,0.007698,0.004432,-0.007681,0.999963,-0.003797,-0.004461,0.003763,0.999983
08837,9.511225,-1.643532,-1.712077,-0.015221,0.008766,-0.009857,0.005299,-0.009894,-0.000631,-0.031560,0.779357,-1.275482,0.095113,-0.016435,-0.017117,1.000000,0.000026,-0.000049,-0.000003,0.999988,-0.001912,-0.002177,0.003855,-0.220074,-0.248595,0.442237,0.999961,0.007718,0.004339,-0.007702,0.999963,-0.003841,-0.004368,0.003807,0.999983
08838,9.500164,-1.690694,-1.708061,-0.046783,0.045482,-0.013464,0.008940,-0.008962,-0.005711,-0.026218,0.783462,-1.272802,0.095002,-0.016909,-0.017077,1.000000,0.000045,-0.000045,-0.000029,0.999988,-0.001944,-0.002152,0.003878,-0.223753,-0.245699,0.444830,0.999961,0.007764,0.004288,-0.007747,0.999962,-0.003905,-0.004318,0.003872,0.999983
08839,9.522009,-1.595566,-1.718381,0.017121,-0.028383,-0.006249,0.005562,-0.008762,-0.006230,-0.031219,0.780044,-1.275568,0.095220,-0.015958,-0.017180,1.000000,0.000028,-0.000044,-0.000031,0.999988,-0.001981,-0.002129,0.003893,-0.227999,-0.243081,0.446595,0.999961,0.007794,0.004243,-0.007778,0.999962,-0.003979,-0.004273,0.003946,0.999983
08840,9.516452,-1.618846,-1.716813,0.001476,-0.010066,-0.008053,0.001519,-0.009939,-0.003279,-0.026979,0.786892,-1.287215,0.095165,-0.016190,-0.017164,1.000000,0.000008,-0.000050,-0.000016,0.999988,-0.002019,-0.002092,0.003881,-0.232292,-0.238782,0.445223,0.999961,0.007770,0.004168,-0.007754,0.999962,-0.004054,-0.004199,0.004022,0.999983
08841,9.511008,-1.672665,-1.766706,-0.070363,-0.006558,0.004305,0.005965,-0.008516,-0.004100,-0.026787,0.775173,-1.276184,0.095110,-0.016728,-0.017664,1.000000,0.000030,-0.000043,-0.000021,0.999988,-0.002047,-0.002062,0.003896,-0.235541,-0.235410,0.446971,0.999961,0.007801,0.004109,-0.007784,0.999961,-0.004111,-0.004141,0.004079,0.999983
08842,9.527341,-1.601471,-1.774513,-0.022360,-0.062015,0.009710,0.010814,-0.006849,-0.002792,-0.025563,0.784640,-1.285054,0.095274,-0.016015,-0.017743,1.000000,0.000054,-0.000034,-0.000014,0.999988,-0.002059,-0.002033,0.003933,-0.236862,-0.232074,0.451117,0.999961,0.007873,0.004050,-0.007857,0.999961,-0.004134,-0.004083,0.004102,0.999983
08843,9.535656,-1.600878,-1.751908,-0.004066,-0.046206,0.013734,0.004479,-0.002752,-0.004013,-0.028785,0.779496,-1.280715,0.095356,-0.016010,-0.017518,1.000000,0.000022,-0.000014,-0.000020,0.999988,-0.002069,-0.002024,0.003936,-0.238034,-0.231027,0.451474,0.999961,0.007880,0.004032,-0.007863,0.999960,-0.004154,-0.004065,0.004123,0.999983
08844,9.544090,-1.600103,-1.728816,0.014245,-0.030412,0.017759,0.001943,0.004846,-0.004902,-0.023041,0.784469,-1.274360,0.095440,-0.016003,-0.017291,1.000000,0.000010,0.000024,-0.000025,0.999988,-0.002059,-0.002045,0.003920,-0.236870,-0.233361,0.449643,0.999961,0.007848,0.004073,-0.007831,0.999961,-0.004134,-0.004105,0.004102,0.999983
08845,9.541485,-1.576436,-1.753051,0.012374,-0.064949,0.015532,-0.001677,0.018454,-0.003574,-0.028115,0.779490,-1.280884,0.095413,-0.015766,-0.017539,1.000000,-0.000008,0.000092,-0.000018,0.999988,-0.002003,-0.002109,0.003875,-0.230450,-0.240823,0.444485,0.999961,0.007758,0.004203,-0.007741,0.999962,-0.004022,-0.004234,0.003989,0.999983
08846,9.525508,-1.646968,-1.743955,-0.035051,-0.009774,0.010136,-0.008012,0.022552,-0.004796,-0.028807,0.784164,-1.277436,0.095253,-0.016473,-0.017450,1.000000,-0.000040,0.000113,-0.000024,0.999988,-0.001945,-0.002192,0.003800,-0.223882,-0.250301,0.435962,0.999962,0.007609,0.004369,-0.007592,0.999964,-0.003907,-0.004398,0.003874,0.999983
08847,9.517490,-1.616495,-1.713271,0.003366,-0.011112,-0.008054,0.000215,0.024023,-0.002968,-0.036546,0.776278,-1.281021,0.095173,-0.016166,-0.017144,1.000000,0.000001,0.000120,-0.000015,0.999989,-0.001866,-0.002274,0.003759,-0.214787,-0.259792,0.431252,0.999961,0.007527,0.004534,-0.007510,0.999965,-0.003749,-0.004562,0.003714,0.999983
08848,9.520768,-1.639541,-1.685808,0.005742,0.023125,-0.005827,-0.001064,0.020554,-0.001536,-0.032152,0.787448,-1.288678,0.095206,-0.016396,-0.016868,1.000000,-0.000005,0.000103,-0.000008,0.999989,-0.001795,-0.002340,0.003696,-0.206630,-0.267423,0.424064,0.999962,0.007401,0.004667,-0.007384,0.999966,-0.003606,-0.004694,0.003572,0.999983
08849,9.529582,-1.669528,-1.712613,-0.032149,0.024172,0.012366,0.009296,0.014180,-0.000947,-0.027967,0.784509,-1.274123,0.095295,-0.016695,-0.017134,1.000000,0.000046,0.000071,-0.000005,0.999989,-0.001731,-0.002381,0.003706,-0.199321,-0.272058,0.425145,0.999961,0.007420,0.004748,-0.007404,0.999967,-0.003479,-0.004774,0.003443,0.999983
08850,9.549112,-1.621842,-1.692867,0.017958,0.003135,0.019982,0.011625,0.015818,-0.001403,-0.029184,0.780375,-1.274571,0.095490,-0.016218,-0.016937,1.000000,0.000058,0.000079,-0.000007,0.999989,-0.001662,-0.002428,0.003720,-0.191465,-0.277530,0.426724,0.999961,0.007448,0.004844,-0.007431,0.999967,-0.003342,-0.004869,0.003306,0.999983
08851,9.532481,-1.592235,-1.686178,0.038331,-0.014161,-0.002237,0.000631,0.005552,-0.000278,-0.031742,0.784889,-1.272162,0.095324,-0.015922,-0.016864,1.000000,0.000003,0.000028,-0.000001,0.999989,-0.001636,-0.002435,0.003694,-0.188447,-0.278386,0.423760,0.999961,0.007396,0.004859,-0.007380,0.999967,-0.003289,-0.004883,0.003253,0.999983
08852,9.505001,-1.640333,-1.726840,-0.029292,-0.009265,-0.013872,-0.002957,0.003899,-0.000705,-0.028731,0.781744,-1.278463,0.095050,-0.016404,-0.017270,1.000000,-0.000015,0.000019,-0.000004,0.999989,-0.001624,-0.002438,0.003644,-0.187067,-0.278750,0.418060,0.999962,0.007296,0.004865,-0.007281,0.999968,-0.003265,-0.004889,0.003229,0.999983
08853,9.505041,-1.640273,-1.726679,-0.029031,-0.009411,-0.013872,0.000000,0.000000,0.000000,-0.020217,0.770113,-1.276080,0.095050,-0.016403,-0.017267,1.000000,0.000000,0.000000,0.000000,0.999989,-0.001624,-0.002438,0.003644,-0.187067,-0.278750,0.418060,0.999962,0.007296,0.004865,-0.007281,0.999968,-0.003265,-0.004889,0.003229,0.999983
08854,9.499571,-1.663944,-1.724290,-0.044881,0.009006,-0.015665,-0.004236,0.000427,0.000726,-0.028563,0.781736,-1.282030,0.094996,-0.016639,-0.017243,1.000000,-0.000021,0.000002,0.000004,0.999989,-0.001616,-0.002422,0.003609,-0.186177,-0.276841,0.414036,0.999962,0.007226,0.004832,-0.007210,0.999969,-0.003249,-0.004855,0.003214,0.999983
08855,9.471793,-1.681660,-1.714013,-0.056306,0.028598,-0.041470,0.001907,-0.002064,-0.000271,-0.024614,0.785171,-1.274970,0.094718,-0.016817,-0.017139,1.000000,0.000010,-0.000010,-0.000001,0.999989,-0.001614,-0.002402,0.003596,-0.185952,-0.274577,0.412519,0.999963,0.007200,0.004792,-0.007184,0.999969,-0.003245,-0.004815,0.003211,0.999983
08856,9.502398,-1.687263,-1.699008,-0.042176,0.043139,-0.013432,0.003588,0.001653,0.000428,-0.025372,0.777248,-1.269239,0.095024,-0.016872,-0.016991,1.000000,0.000018,0.000008,0.000002,0.999989,-0.001597,-0.002391,0.003592,-0.183981,-0.273370,0.412089,0.999963,0.007192,0.004771,-0.007177,0.999969,-0.003211,-0.004794,0.003177,0.999983
08857,9.493907,-1.657019,-1.670578,-0.003762,0.041786,-0.031631,0.003870,-0.004848,-0.006048,-0.034979,0.779377,-1.279151,0.094939,-0.016573,-0.016704,1.000000,0.000019,-0.000024,-0.000030,0.999989,-0.001622,-0.002382,0.003596,-0.186862,-0.272284,0.412518,0.999963,0.007200,0.004752,-0.007184,0.999969,-0.003261,-0.004776,0.003227,0.999983
08858,9.518865,-1.615628,-1.706437,0.006036,-0.012474,-0.008057,0.000667,0.001376,-0.003469,-0.021714,0.784463,-1.271925,0.095188,-0.016158,-0.017065,1.000000,0.000003,0.000007,-0.000017,0.999989,-0.001622,-0.002386,0.003569,-0.186817,-0.272704,0.409411,0.999963,0.007145,0.004760,-0.007130,0.999969,-0.003261,-0.004783,0.003226,0.999983
08859,9.510542,-1.615732,-1.729708,-0.011752,-0.028563,-0.012079,-0.004621,-0.007451,-0.002280,-0.022334,0.786178,-1.280078,0.095106,-0.016159,-0.017293,1.000000,-0.000023,-0.000037,-0.000011,0.999990,-0.001653,-0.002354,0.003530,-0.190387,-0.269057,0.404993,0.999964,0.007068,0.004696,-0.007053,0.999970,-0.003323,-0.004719,0.003290,0.999983
08860,9.530166,-1.668219,-1.710635,-0.029368,0.022893,0.012378,-0.004812,-0.005845,-0.004502,-0.033902,0.779542,-1.278416,0.095302,-0.016685,-0.017103,1.000000,-0.000024,-0.000029,-0.000023,0.999990,-0.001690,-0.002332,0.003510,-0.194615,-0.266577,0.402726,0.999964,0.007029,0.004653,-0.007013,0.999970,-0.003397,-0.004676,0.003364,0.999983
08861,9.494037,-1.685947,-1.723893,-0.058841,0.026548,-0.017444,0.001733,-0.008090,-0.003370,-0.030920,0.777105,-1.276399,0.094941,-0.016861,-0.017235,1.000000,0.000009,-0.000040,-0.000017,0.999990,-0.001720,-0.002302,0.003504,-0.197993,-0.263094,0.402011,0.999965,0.007016,0.004592,-0.007000,0.999970,-0.003456,-0.004616,0.003423,0.999983
08862,9.535511,-1.643750,-1.714464,-0.012965,0.004145,0.014168,0.007685,-0.008975,-0.006590,-0.027235,0.778971,-1.278085,0.095355,-0.016440,-0.017141,1.000000,0.000038,-0.000045,-0.000033,0.999990,-0.001756,-0.002281,0.003516,-0.202134,-0.260622,0.403332,0.999965,0.007039,0.004549,-0.007023,0.999969,-0.003528,-0.004573,0.003496,0.999983
08863,9.507698,-1.661079,-1.704792,-0.024388,0.023742,-0.011633,0.008087,-0.008729,-0.004460,-0.030155,0.780050,-1.268534,0.095077,-0.016612,-0.017044,1.000000,0.000040,-0.000044,-0.000022,0.999990,-0.001784,-0.002252,0.003542,-0.205318,-0.257304,0.406318,0.999965,0.007091,0.004491,-0.007075,0.999969,-0.003583,-0.004516,0.003552,0.999983
08864,9.532503,-1.619812,-1.741249,-0.014593,-0.030513,0.011935,0.003851,-0.008303,-0.003733,-0.034838,0.779034,-1.277172,0.095325,-0.016200,-0.017409,1.000000,0.000019,-0.000042,-0.000019,0.999990,-0.001814,-0.002221,0.003543,-0.208768,-0.253809,0.406410,0.999965,0.007093,0.004430,-0.007077,0.999968,-0.003644,-0.004455,0.003612,0.999984
08865,9.496182,-1.607100,-1.703068,0.012128,-0.012134,-0.032074,0.007685,-0.008973,-0.006590,-0.026272,0.781214,-1.275055,0.094962,-0.016073,-0.017027,1.000000,0.000038,-0.000045,-0.000033,0.999990,-0.001850,-0.002199,0.003569,-0.212947,-0.251245,0.409412,0.999965,0.007145,0.004385,-0.007129,0.999968,-0.003717,-0.004411,0.003685,0.999983
08866,9.532353,-1.619032,-1.742799,-0.014076,-0.030795,0.011935,0.003641,-0.010152,-0.003640,-0.029875,0.776232,-1.277166,0.095324,-0.016192,-0.017423,1.000000,0.000018,-0.000051,-0.000018,0.999990,-0.001886,-0.002163,0.003564,-0.217043,-0.247046,0.408895,0.999965,0.007136,0.004312,-0.007120,0.999967,-0.003788,-0.004339,0.003757,0.999984
08867,9.521163,-1.635579,-1.687429,0.010614,0.020672,-0.005826,0.002381,-0.010168,-0.004523,-0.023960,0.780335,-1.273624,0.095212,-0.016358,-0.016870,1.000000,0.000012,-0.000051,-0.000023,0.999990,-0.001926,-0.002129,0.003564,-0.221599,-0.243175,0.408856,0.999966,0.007136,0.004244,-0.007119,0.999967,-0.003868,-0.004272,0.003837,0.999984
08868,9.495874,-1.605987,-1.705832,0.012929,-0.012569,-0.032076,-0.002064,-0.011592,-0.003702,-0.027548,0.780198,-1.270200,0.094959,-0.016062,-0.017053,1.000000,-0.000010,-0.000058,-0.000019,0.999990,-0.001973,-0.002086,0.003543,-0.226981,-0.238269,0.406517,0.999966,0.007095,0.004159,-0.007078,0.999967,-0.003962,-0.004187,0.003932,0.999984
08869,9.545790,-1.593766,-1.725285,0.020671,-0.033763,0.017736,-0.003114,-0.009758,-0.004677,-0.027266,0.779484,-1.280343,0.095458,-0.015940,-0.017248,1.000000,-0.000016,-0.000049,-0.000023,0.999990,-0.002019,-0.002055,0.003516,-0.232197,-0.234640,0.403400,0.999967,0.007041,0.004095,-0.007024,0.999967,-0.004053,-0.004124,0.004024,0.999983
08870,9.506690,-1.588421,-1.764122,-0.010968,-0.064467,-0.014316,-0.003166,-0.009038,0.000829,-0.027879,0.785009,-1.282958,0.095068,-0.015884,-0.017637,1.000000,-0.000016,-0.000045,0.000004,0.999990,-0.002044,-0.002005,0.003482,-0.235009,-0.228992,0.399530,0.999968,0.006973,0.003997,-0.006957,0.999967,-0.004102,-0.004025,0.004074,0.999984
08871,9.540290,-1.647467,-1.775864,-0.050874,-0.030294,0.030151,-0.003133,-0.002127,-0.003802,-0.034091,0.781266,-1.280634,0.095403,-0.016477,-0.017757,1.000000,-0.000016,-0.000011,-0.000019,0.999990,-0.002061,-0.001998,0.003448,-0.236906,-0.228133,0.395576,0.999968,0.006904,0.003982,-0.006888,0.999968,-0.004135,-0.004010,0.004107,0.999984
08872,9.518057,-1.641256,-1.767813,-0.046423,-0.029141,0.006136,0.003395,0.003259,-0.001797,-0.034523,0.781106,-1.275993,0.095180,-0.016413,-0.017680,1.000000,0.000017,0.000016,-0.000009,0.999990,-0.002044,-0.002003,0.003428,-0.235017,-0.228708,0.393283,0.999968,0.006864,0.003992,-0.006848,0.999968,-0.004102,-0.004020,0.004074,0.999984
08873,9.509633,-1.611211,-1.738898,-0.008022,-0.030521,-0.012081,0.008033,0.003079,-0.000396,-0.030027,0.781057,-1.282164,0.095096,-0.016112,-0.017391,1.000000,0.000040,0.000015,-0.000002,0.999990,-0.002018,-0.002002,0.003440,-0.231991,-0.228586,0.394683,0.999968,0.006888,0.003990,-0.006872,0.999968,-0.004049,-0.004017,0.004021,0.999984
08874,9.559789,-1.599321,-1.756701,-0.000299,-0.051721,0.037729,0.016118,0.005440,-0.006298,-0.024467,0.776702,-1.279036,0.095597,-0.015995,-0.017571,1.000000,0.000081,0.000027,-0.000031,0.999990,-0.001994,-0.002031,0.003480,-0.229266,-0.231886,0.399215,0.999968,0.006967,0.004047,-0.006951,0.999968,-0.004001,-0.004075,0.003973,0.999984
08875,9.518501,-1.640974,-1.765683,-0.045661,-0.029577,0.006139,0.008031,0.014166,-0.001837,-0.029328,0.780372,-1.276549,0.095184,-0.016410,-0.017664,1.000000,0.000040,0.000071,-0.000009,0.999990,-0.001934,-0.002074,0.003484,-0.222489,-0.236876,0.399686,0.999967,0.006976,0.004134,-0.006960,0.999968,-0.003883,-0.004161,0.003854,0.999984
08876,9.577009,-1.598089,-1.708143,0.036376,-0.020184,0.045761,0.004460,0.015968,-0.004579,-0.028038,0.783114,-1.281407,0.095768,-0.015983,-0.017089,1.000000,0.000022,0.000080,-0.000023,0.999990,-0.001882,-0.002132,0.003473,-0.216508,-0.243574,0.398463,0.999967,0.006954,0.004251,-0.006938,0.999969,-0.003779,-0.004277,0.003749,0.999984
08877,9.518996,-1.609988,-1.711030,0.011088,-0.015201,-0.008065,-0.002542,0.018685,-0.002334,-0.023284,0.773769,-1.273543,0.095188,-0.016101,-0.017119,1.000000,-0.000013,0.000093,-0.000012,0.999990,-0.001822,-0.002193,0.003423,-0.209624,-0.250633,0.392673,0.999967,0.006853,0.004374,-0.006837,0.999970,-0.003659,-0.004399,0.003629,0.999984
08878,9.527677,-1.609293,-1.686352,0.029451,0.000563,-0.004050,-0.004659,0.018898,-0.001970,-0.036066,0.775057,-1.285423,0.095275,-0.016094,-0.016872,1.000000,-0.000023,0.000094,-0.000010,0.999990,-0.001762,-0.002252,0.003368,-0.202748,-0.257432,0.386373,0.999967,0.006743,0.004493,-0.006727,0.999971,-0.003539,-0.004517,0.003508,0.999984
08879,9.545147,-1.669006,-1.741398,-0.046562,0.002903,0.032398,-0.008668,0.024632,-0.003652,-0.025333,0.784991,-1.281335,0.095449,-0.016693,-0.017425,1.000000,-0.000043,0.000123,-0.000018,0.999990,-0.001693,-0.002340,0.003284,-0.194910,-0.267462,0.376735,0.999967,0.006575,0.004668,-0.006559,0.999973,-0.003402,-0.004690,0.003371,0.999983
08880,9.495541,-1.680363,-1.721061,-0.053783,0.023794,-0.017408,0.002553,0.018036,-0.004305,-0.032145,0.789720,-1.275334,0.094953,-0.016805,-0.017219,1.000000,0.000013,0.000090,-0.000022,0.999990,-0.001635,-0.002405,0.003253,-0.188225,-0.275027,0.373243,0.999967,0.006514,0.004800,-0.006498,0.999973,-0.003285,-0.004821,0.003254,0.999983
08881,9.551153,-1.614164,-1.688689,0.026044,-0.001206,0.019964,0.000627,0.016643,-0.001720,-0.030696,0.779705,-1.270664,0.095510,-0.016142,-0.016895,1.000000,0.000003,0.000083,-0.000009,0.999991,-0.001576,-0.002457,0.003219,-0.181454,-0.280995,0.369346,0.999967,0.006446,0.004904,-0.006431,0.999974,-0.003167,-0.004925,0.003135,0.999983
08882,9.490225,-1.602984,-1.717170,-0.001450,-0.030519,-0.036099,-0.001700,0.015005,-0.001264,-0.031375,0.777094,-1.283838,0.094901,-0.016031,-0.017179,1.000000,-0.000009,0.000075,-0.000006,0.999991,-0.001527,-0.002502,0.003166,-0.175912,-0.286126,0.363240,0.999967,0.006340,0.004994,-0.006324,0.999975,-0.003070,-0.005013,0.003039,0.999983
08883,9.507341,-1.632353,-1.721514,-0.021254,-0.013498,-0.013857,-0.002521,0.011058,-0.003208,-0.026702,0.769478,-1.274946,0.095072,-0.016325,-0.017220,1.000000,-0.000013,0.000055,-0.000016,0.999991,-0.001496,-0.002539,0.003123,-0.172342,-0.290413,0.358287,0.999968,0.006253,0.005069,-0.006238,0.999976,-0.003008,-0.005087,0.002976,0.999983
08884,9.496665,-1.679310,-1.715875,-0.052713,0.023236,-0.017401,-0.004199,0.007340,-0.003906,-0.030489,0.774311,-1.290105,0.094966,-0.016795,-0.017162,1.000000,-0.000021,0.000037,-0.000020,0.999991,-0.001479,-0.002564,0.003076,-0.170415,-0.293346,0.352925,0.999968,0.006160,0.005120,-0.006144,0.999977,-0.002974,-0.005138,0.002943,0.999982
08885,9.496561,-1.648559,-1.663854,0.003757,0.037750,-0.031615,-0.002749,0.005750,-0.000800,-0.030616,0.776243,-1.274461,0.094965,-0.016486,-0.016641,1.000000,-0.000014,0.000029,-0.000004,0.999991,-0.001458,-0.002574,0.003034,-0.167990,-0.294497,0.348116,0.999968,0.006076,0.005140,-0.006061,0.999977,-0.002932,-0.005158,0.002901,0.999982
08886,9.477465,-1.696118,-1.681672,-0.045779,0.058577,-0.039170,0.000668,0.001378,-0.003469,-0.038970,0.775254,-1.284942,0.094774,-0.016963,-0.016817,1.000000,0.000003,0.000007,-0.000017,0.999991,-0.001455,-0.002578,0.003012,-0.167572,-0.294861,0.345572,0.999969,0.006031,0.005146,-0.006016,0.999978,-0.002925,-0.005164,0.002894,0.999982
08887,9.516194,-1.630656,-1.696706,-0.002103,0.001723,-0.009841,0.003644,0.000937,-0.005077,-0.031065,0.782800,-1.277873,0.095161,-0.016309,-0.016968,1.000000,0.000018,0.000005,-0.000025,0.999991,-0.001457,-0.002585,0.003009,-0.167843,-0.295751,0.345215,0.999969,0.006025,0.005162,-0.006010,0.999978,-0.002929,-0.005179,0.002898,0.999982
08888,9.552560,-1.642592,-1.735612,-0.028319,-0.016944,0.034178,-0.001870,-0.002113,-0.002921,-0.024569,0.774462,-1.277247,0.095526,-0.016427,-0.017355,1.000000,-0.000009,-0.000011,-0.000015,0.999991,-0.001468,-0.002576,0.002963,-0.169144,-0.294664,0.339987,0.999969,0.005934,0.005143,-0.005919,0.999978,-0.002952,-0.005160,0.002922,0.999982
08889,9.577882,-1.671135,-1.717938,-0.030034,0.015992,0.060441,-0.001815,0.008261,-0.009867,-0.036507,0.788527,-1.284808,0.095777,-0.016716,-0.017183,1.000000,-0.000009,0.000041,-0.000049,0.999991,-0.001469,-0.002626,0.002931,-0.169208,-0.300480,0.336371,0.999969,0.005871,0.005244,-0.005855,0.999978,-0.002953,-0.005262,0.002922,0.999982
08890,9.591439,-1.545292,-1.698061,0.071832,-0.059301,0.049278,-0.005823,0.013995,-0.011550,-0.036125,0.776623,-1.279365,0.095912,-0.015459,-0.016987,1.000000,-0.000029,0.000070,-0.000058,0.999991,-0.001461,-0.002703,0.002875,-0.168324,-0.309241,0.329854,0.999969,0.005757,0.005397,-0.005741,0.999979,-0.002938,-0.005414,0.002907,0.999981
08891,9.514093,-1.573799,-1.667788,0.052931,-0.018609,-0.026311,-0.009680,0.022301,-0.007820,-0.028052,0.784327,-1.279389,0.095138,-0.015743,-0.016688,1.000000,-0.000048,0.000112,-0.000039,0.999991,-0.001416,-0.002796,0.002791,-0.163178,-0.319987,0.320296,0.999969,0.005590,0.005585,-0.005574,0.999980,-0.002848,-0.005601,0.002817,0.999980
08892,9.523727,-1.703475,-1.692843,-0.052569,0.055121,0.008877,-0.006262,0.017931,-0.010489,-0.031579,0.778478,-1.283283,0.095235,-0.017040,-0.016936,1.000000,-0.000031,0.000090,-0.000052,0.999991,-0.001392,-0.002883,0.002725,-0.160401,-0.329977,0.312701,0.999969,0.005458,0.005759,-0.005441,0.999981,-0.002799,-0.005774,0.002768,0.999979
08893,9.535022,-1.655229,-1.696137,-0.020582,0.018023,0.012411,0.008947,0.013235,-0.008576,-0.033825,0.784553,-1.276169,0.095348,-0.016556,-0.016968,1.000000,0.000045,0.000066,-0.000043,0.999991,-0.001358,-0.002947,0.002740,-0.156536,-0.337291,0.314447,0.999968,0.005488,0.005887,-0.005472,0.999981,-0.002732,-0.005902,0.002700,0.999979
08894,9.510185,-1.625548,-1.712218,-0.018348,-0.015186,-0.013853,0.010397,0.011645,-0.005469,-0.040628,0.780113,-1.278983,0.095100,-0.016257,-0.017129,1.000000,0.000052,0.000058,-0.000027,0.999991,-0.001318,-0.002994,0.002755,-0.151986,-0.342669,0.316184,0.999967,0.005518,0.005981,-0.005503,0.999981,-0.002653,-0.005995,0.002620,0.999979
08895,9.532748,-1.631085,-1.719150,-0.022273,-0.016633,0.010164,0.010629,0.005861,-0.006437,-0.028622,0.783317,-1.268921,0.095326,-0.016313,-0.017195,1.000000,0.000053,0.000029,-0.000032,0.999991,-0.001300,-0.003024,0.002783,-0.149918,-0.346108,0.319365,0.999966,0.005574,0.006041,-0.005558,0.999981,-0.002617,-0.006055,0.002583,0.999978
08896,9.496607,-1.618422,-1.679488,0.004436,0.001775,-0.033858,0.012098,0.007731,-0.005646,-0.032520,0.778831,-1.282793,0.094965,-0.016186,-0.016800,1.000000,0.000060,0.000039,-0.000028,0.999991,-0.001274,-0.003058,0.002804,-0.146924,-0.350033,0.321772,0.999966,0.005616,0.006109,-0.005600,0.999981,-0.002564,-0.006123,0.002530,0.999978
08897,9.527371,-1.623581,-1.663808,0.018598,0.016229,-0.005829,0.007233,0.002598,-0.004645,-0.030896,0.777108,-1.274894,0.095273,-0.016237,-0.016640,1.000000,0.000036,0.000013,-0.000023,0.999991,-0.001264,-0.003070,0.002817,-0.145884,-0.351423,0.323203,0.999965,0.005641,0.006133,-0.005625,0.999981,-0.002546,-0.006148,0.002512,0.999978
08898,9.552320,-1.582269,-1.699530,0.028319,-0.038084,0.017702,0.002160,-0.004389,-0.003551,-0.031325,0.777265,-1.284354,0.095523,-0.015824,-0.016993,1.000000,0.000011,-0.000022,-0.000018,0.999991,-0.001281,-0.003053,0.002808,-0.147819,-0.349434,0.322258,0.999966,0.005624,0.006099,-0.005609,0.999981,-0.002580,-0.006113,0.002546,0.999978
08899,9.533144,-1.629924,-1.718054,-0.021218,-0.017173,0.010166,-0.002536,-0.003493,0.000547,-0.034775,0.775068,-1.274670,0.095332,-0.016299,-0.017179,1.000000,-0.000013,-0.000017,0.000003,0.999991,-0.001287,-0.003025,0.002774,-0.148433,-0.346264,0.318329,0.999966,0.005556,0.006043,-0.005540,0.999981,-0.002591,-0.006058,0.002557,0.999978
08900,9.533116,-1.629774,-1.718350,-0.020951,-0.017341,0.010166,0.000251,-0.002325,-0.003283,-0.029581,0.784509,-1.280514,0.095331,-0.016299,-0.017182,1.000000,0.000001,-0.000012,-0.000016,0.999991,-0.001297,-0.003015,0.002751,-0.149611,-0.345071,0.315699,0.999967,0.005510,0.006023,-0.005494,0.999981,-0.002611,-0.006037,0.002578,0.999978
08901,9.558670,-1.689007,-1.752470,-0.078850,0.000978,0.050671,0.008534,-0.001562,-0.006951,-0.038076,0.774923,-1.274340,0.095586,-0.016893,-0.017525,1.000000,0.000043,-0.000008,-0.000035,0.999991,-0.001309,-0.003020,0.002775,-0.150930,-0.345684,0.318490,0.999966,0.005559,0.006033,-0.005543,0.999981,-0.002634,-0.006048,0.002601,0.999978
08902,9.525044,-1.629382,-1.740965,-0.038518,-0.033514,0.006156,0.012097,0.007733,-0.005647,-0.034762,0.779539,-1.283235,0.095249,-0.016295,-0.017414,1.000000,0.000060,0.000039,-0.000028,0.999991,-0.001281,-0.003054,0.002800,-0.147734,-0.349567,0.321310,0.999966,0.005608,0.006101,-0.005592,0.999981,-0.002578,-0.006115,0.002544,0.999978
08903,9.516677,-1.598953,-1.711462,-0.000133,-0.034950,-0.012092,0.015284,0.009148,-0.007346,-0.031065,0.778475,-1.282658,0.095165,-0.015992,-0.017120,1.000000,0.000076,0.000046,-0.000037,0.999990,-0.001249,-0.003099,0.002848,-0.144109,-0.354708,0.326849,0.999965,0.005704,0.006191,-0.005689,0.999981,-0.002515,-0.006205,0.002480,0.999978
08904,9.542077,-1.627719,-1.693093,-0.001804,-0.002031,0.014177,0.005533,0.006515,-0.004470,-0.033380,0.784901,-1.273008,0.095420,-0.016279,-0.016934,1.000000,0.000028,0.000033,-0.000022,0.999990,-0.001227,-0.003124,0.002845,-0.141630,-0.357582,0.326449,0.999964,0.005697,0.006241,-0.005682,0.999981,-0.002472,-0.006255,0.002436,0.999977
08905,9.530864,-1.574091,-1.688845,0.034339,-0.037852,-0.006326,0.006577,0.015777,-0.004936,-0.032115,0.783177,-1.266529,0.095307,-0.015743,-0.016896,1.000000,0.000033,0.000079,-0.000025,0.999990,-0.001175,-0.003184,0.002843,-0.135654,-0.364477,0.326261,0.999964,0.005694,0.006361,-0.005679,0.999981,-0.002368,-0.006375,0.002331,0.999977
08906,9.531615,-1.604121,-1.738555,-0.021610,-0.052507,0.007916,-0.008235,0.020712,-0.004726,-0.037562,0.780784,-1.276736,0.095314,-0.016044,-0.017395,1.000000,-0.000041,0.000104,-0.000024,0.999990,-0.001128,-0.003261,0.002759,-0.130253,-0.373272,0.316613,0.999964,0.005526,0.006515,-0.005511,0.999982,-0.002273,-0.006527,0.002237,0.999976
08907,9.565468,-1.632331,-1.696246,-0.005186,-0.003684,0.038196,-0.003598,0.020538,-0.003317,-0.035606,0.780250,-1.276726,0.095653,-0.016325,-0.016972,1.000000,-0.000018,0.000103,-0.000017,0.999990,-0.001066,-0.003332,0.002703,-0.123167,-0.381475,0.310143,0.999963,0.005413,0.006658,-0.005399,0.999983,-0.002150,-0.006669,0.002114,0.999976
08908,9.534873,-1.595942,-1.658132,0.037363,-0.003797,-0.004077,0.001082,0.016184,-0.005097,-0.031174,0.776751,-1.281623,0.095347,-0.015962,-0.016589,1.000000,0.000005,0.000081,-0.000025,0.999990,-0.001021,-0.003395,0.002661,-0.118045,-0.388685,0.305289,0.999963,0.005328,0.006784,-0.005314,0.999984,-0.002060,-0.006795,0.002024,0.999975
08909,9.521532,-1.619712,-1.677130,0.003682,-0.001348,-0.009842,-0.002757,0.016852,-0.002246,-0.035828,0.779383,-1.279692,0.095214,-0.016198,-0.016779,1.000000,-0.000014,0.000084,-0.000011,0.999990,-0.000967,-0.003449,0.002611,-0.111857,-0.394950,0.299536,0.999963,0.005228,0.006893,-0.005214,0.999984,-0.001952,-0.006903,0.001916,0.999974
08910,9.530484,-1.649554,-1.704129,-0.034163,-0.000198,0.008415,-0.005944,0.015438,-0.000548,-0.036173,0.773693,-1.277339,0.095303,-0.016496,-0.017048,1.000000,-0.000030,0.000077,-0.000003,0.999990,-0.000916,-0.003492,0.002542,-0.105963,-0.399883,0.291715,0.999963,0.005091,0.006979,-0.005078,0.999985,-0.001849,-0.006989,0.001814,0.999974
08911,9.494343,-1.637023,-1.664077,-0.007448,0.018143,-0.035614,-0.004432,0.013130,-0.002945,-0.035033,0.780067,-1.279389,0.094942,-0.016372,-0.016647,1.000000,-0.000022,0.000066,-0.000015,0.999990,-0.000879,-0.003536,0.002488,-0.101731,-0.404907,0.285464,0.999963,0.004982,0.007067,-0.004970,0.999986,-0.001776,-0.007076,0.001740,0.999973
08912,9.519655,-1.666039,-1.645846,-0.009103,0.051074,-0.009340,-0.006799,0.004566,0.002139,-0.029832,0.772774,-1.279695,0.095196,-0.016660,-0.016460,1.000000,-0.000034,0.000023,0.000011,0.999990,-0.000857,-0.003531,0.002418,-0.099158,-0.404388,0.277437,0.999963,0.004842,0.007058,-0.004830,0.999987,-0.001731,-0.007066,0.001696,0.999974
08913,9.503210,-1.666925,-1.691542,-0.045040,0.019155,-0.017353,0.003188,0.001415,-0.001697,-0.027115,0.776032,-1.279626,0.095032,-0.016670,-0.016916,1.000000,0.000016,0.000007,-0.000008,0.999991,-0.000846,-0.003529,0.002409,-0.097963,-0.404116,0.276437,0.999963,0.004825,0.007053,-0.004813,0.999987,-0.001710,-0.007061,0.001676,0.999974
08914,9.511507,-1.666369,-1.668379,-0.026624,0.034868,-0.013345,0.003188,0.001415,-0.001697,-0.038199,0.787692,-1.278086,0.095115,-0.016664,-0.016685,1.000000,0.000016,0.000007,-0.000008,0.999991,-0.000835,-0.003524,0.002416,-0.096632,-0.403538,0.277164,0.999963,0.004837,0.007043,-0.004826,0.999987,-0.001686,-0.007051,0.001652,0.999974
08915,9.517390,-1.673080,-1.722100,-0.066739,0.001650,0.002662,0.011454,-0.001280,-0.003044,-0.033697,0.773847,-1.276705,0.095174,-0.016731,-0.017221,1.000000,0.000057,-0.000006,-0.000015,0.999990,-0.000828,-0.003516,0.002451,-0.095895,-0.402698,0.281155,0.999963,0.004907,0.007028,-0.004895,0.999987,-0.001674,-0.007036,0.001639,0.999974
08916,9.527814,-1.595122,-1.675506,0.021422,-0.020876,-0.008093,0.011246,-0.003133,-0.002951,-0.027300,0.766553,-1.272277,0.095278,-0.015952,-0.016754,1.000000,0.000056,-0.000016,-0.000015,0.999990,-0.000830,-0.003502,0.002477,-0.096106,-0.401068,0.284152,0.999963,0.004959,0.007000,-0.004948,0.999986,-0.001677,-0.007008,0.001643,0.999974
08917,9.539399,-1.647983,-1.678484,-0.014167,0.014665,0.012428,0.006441,0.002112,-0.008901,-0.034796,0.772472,-1.278190,0.095393,-0.016484,-0.016786,1.000000,0.000032,0.000011,-0.000045,0.999990,-0.000838,-0.003527,0.002489,-0.097054,-0.403970,0.285617,0.999963,0.004985,0.007051,-0.004973,0.999986,-0.001694,-0.007059,0.001659,0.999974
08918,9.522621,-1.617604,-1.672976,0.006139,-0.002719,-0.009843,0.004556,-0.003465,-0.009507,-0.036164,0.771790,-1.279355,0.095226,-0.016180,-0.016728,1.000000,0.000023,-0.000017,-0.000048,0.999990,-0.000868,-0.003533,0.002507,-0.100443,-0.404651,0.287604,0.999962,0.005019,0.007062,-0.005007,0.999986,-0.001753,-0.007071,0.001718,0.999974
08919,9.492123,-1.611531,-1.688197,-0.007533,-0.017446,-0.037869,0.003442,-0.000911,-0.004980,-0.037409,0.779063,-1.273249,0.094921,-0.016117,-0.016882,1.000000,0.000017,-0.000005,-0.000025,0.999990,-0.000876,-0.003534,0.002504,-0.101423,-0.404746,0.287303,0.999962,0.005014,0.007064,-0.005002,0.999986,-0.001770,-0.007073,0.001735,0.999973
08920,9.525976,-1.670261,-1.699545,-0.047294,0.016800,0.006677,0.005587,-0.008761,-0.006212,-0.034390,0.773835,-1.285091,0.095260,-0.016705,-0.016992,1.000000,0.000028,-0.000044,-0.000031,0.999990,-0.000913,-0.003512,0.002509,-0.105675,-0.402169,0.287940,0.999963,0.005025,0.007019,-0.005013,0.999986,-0.001844,-0.007028,0.001809,0.999974
08921,9.525933,-1.669969,-1.700068,-0.047031,0.016653,0.006678,0.008919,-0.004773,-0.002498,-0.029441,0.779690,-1.272744,0.095260,-0.016700,-0.016999,1.000000,0.000045,-0.000024,-0.000012,0.999990,-0.000920,-0.003490,0.002535,-0.106431,-0.399683,0.290809,0.999963,0.005075,0.006976,-0.005063,0.999985,-0.001858,-0.006985,0.001822,0.999974
08922,9.536649,-1.622427,-1.705654,-0.015072,-0.020497,0.010171,0.015955,-0.015122,-0.005601,-0.030351,0.782455,-1.275032,0.095367,-0.016226,-0.017051,1.000000,0.000080,-0.000076,-0.000028,0.999990,-0.000964,-0.003441,0.002608,-0.111488,-0.394052,0.299291,0.999963,0.005223,0.006877,-0.005210,0.999985,-0.001946,-0.006888,0.001910,0.999974
08923,9.508771,-1.639989,-1.696308,-0.026474,-0.000842,-0.015594,0.019749,-0.011606,-0.005262,-0.031768,0.780230,-1.271400,0.095088,-0.016401,-0.016959,1.000000,0.000099,-0.000058,-0.000026,0.999990,-0.000990,-0.003405,0.002694,-0.114528,-0.389872,0.309121,0.999962,0.005395,0.006805,-0.005382,0.999984,-0.001999,-0.006815,0.001962,0.999975
08924,9.547207,-1.574783,-1.712193,0.017146,-0.057739,0.013659,0.018237,-0.009296,-0.002866,-0.033143,0.772800,-1.280118,0.095473,-0.015748,-0.017119,1.000000,0.000091,-0.000046,-0.000014,0.999990,-0.001005,-0.003367,0.002771,-0.116272,-0.385508,0.317922,0.999962,0.005549,0.006728,-0.005535,0.999983,-0.002029,-0.006739,0.001992,0.999975
08925,9.549935,-1.597974,-1.687501,0.019685,-0.023513,0.015919,0.012533,-0.010747,-0.002937,-0.034394,0.783694,-1.276277,0.095500,-0.015980,-0.016871,1.000000,0.000063,-0.000054,-0.000015,0.999990,-0.001029,-0.003326,0.002819,-0.119038,-0.380752,0.323425,0.999962,0.005645,0.006645,-0.005631,0.999982,-0.002078,-0.006657,0.002040,0.999976
08926,9.577238,-1.549554,-1.646657,0.087841,-0.028914,0.027411,0.007633,0.002851,-0.002514,-0.032285,0.776948,-1.274040,0.095772,-0.015496,-0.016469,1.000000,0.000038,0.000014,-0.000013,0.999990,-0.001012,-0.003331,0.002827,-0.117061,-0.381346,0.324301,0.999962,0.005660,0.006656,-0.005646,0.999982,-0.002043,-0.006667,0.002005,0.999976
08927,9.533541,-1.598619,-1.733056,-0.016010,-0.055548,0.007910,-0.006973,0.009627,-0.002404,-0.031239,0.774688,-1.277577,0.095334,-0.015988,-0.017335,1.000000,-0.000035,0.000048,-0.000012,0.999990,-0.000988,-0.003360,0.002762,-0.114331,-0.384726,0.316927,0.999962,0.005531,0.006715,-0.005518,0.999983,-0.001995,-0.006726,0.001958,0.999975
08928,9.494754,-1.632864,-1.665815,-0.002827,0.015668,-0.035607,-0.009508,0.006131,-0.001856,-0.036814,0.777137,-1.284227,0.094947,-0.016330,-0.016660,1.000000,-0.000048,0.000031,-0.000009,0.999990,-0.000978,-0.003374,0.002690,-0.113112,-0.386338,0.308590,0.999963,0.005386,0.006743,-0.005373,0.999984,-0.001974,-0.006753,0.001938,0.999975
08929,9.539525,-1.644453,-1.681230,-0.010896,0.012911,0.012434,0.001277,0.003478,-0.001433,-0.037974,0.771285,-1.280157,0.095395,-0.016445,-0.016814,1.000000,0.000006,0.000017,-0.000007,0.999990,-0.000962,-0.003378,0.002670,-0.111268,-0.386805,0.306301,0.999963,0.005346,0.006751,-0.005333,0.999984,-0.001942,-0.006761,0.001906,0.999975
08930,9.500297,-1.608950,-1.667683,0.013511,-0.003175,-0.033867,-0.000860,0.000228,0.001245,-0.035313,0.777993,-1.281836,0.095003,-0.016089,-0.016677,1.000000,-0.000004,0.000001,0.000006,0.999990,-0.000948,-0.003362,0.002628,-0.109702,-0.384957,0.301469,0.999964,0.005261,0.006719,-0.005249,0.999984,-0.001915,-0.006729,0.001879,0.999976
08931,9.519797,-1.591594,-1.700933,0.007317,-0.039005,-0.012110,-0.006547,0.002234,-0.001144,-0.032515,0.779522,-1.282795,0.095198,-0.015917,-0.017010,1.000000,-0.000033,0.000011,-0.000006,0.999991,-0.000945,-0.003361,0.002570,-0.109297,-0.384808,0.294926,0.999964,0.005147,0.006716,-0.005135,0.999985,-0.001908,-0.006726,0.001873,0.999976
08932,9.522623,-1.614696,-1.675771,0.009879,-0.004780,-0.009847,-0.009100,-0.004722,0.001721,-0.032802,0.782470,-1.277686,0.095227,-0.016147,-0.016755,1.000000,-0.000046,-0.000024,0.000009,0.999991,-0.000959,-0.003324,0.002501,-0.110808,-0.380610,0.286921,0.999965,0.005008,0.006643,-0.004995,0.999986,-0.001934,-0.006652,0.001901,0.999976
08933,9.531190,-1.644874,-1.704706,-0.027966,-0.003591,0.008434,-0.008494,-0.002623,0.003758,-0.029386,0.774660,-1.284340,0.095312,-0.016448,-0.017045,1.000000,-0.000042,-0.000013,0.000019,0.999991,-0.000957,-0.003288,0.002434,-0.110621,-0.376510,0.279276,0.999967,0.004874,0.006571,-0.004862,0.999986,-0.001931,-0.006581,0.001899,0.999977
08934,9.503784,-1.693302,-1.746162,-0.095561,0.001554,-0.003043,-0.000416,-0.003706,0.000187,-0.037755,0.780610,-1.278198,0.095038,-0.016933,-0.017460,1.000000,-0.000002,-0.000019,0.000001,0.999991,-0.000962,-0.003259,0.002415,-0.111185,-0.373221,0.277047,0.999967,0.004835,0.006514,-0.004823,0.999986,-0.001940,-0.006523,0.001909,0.999977
08935,9.520244,-1.692419,-1.700447,-0.059057,0.033138,0.004963,0.009526,-0.002672,-0.000462,-0.031704,0.783651,-1.286777,0.095203,-0.016924,-0.017004,1.000000,0.000048,-0.000013,-0.000002,0.999991,-0.000954,-0.003238,0.002439,-0.110228,-0.370776,0.279843,0.999967,0.004884,0.006471,-0.004872,0.999986,-0.001924,-0.006481,0.001892,0.999977
08936,9.533854,-1.668483,-1.679973,-0.024844,0.030366,0.010702,0.014162,-0.002844,0.000948,-0.034202,0.771961,-1.272297,0.095339,-0.016683,-0.016800,1.000000,0.000071,-0.000014,0.000005,0.999991,-0.000937,-0.003211,0.002478,-0.108282,-0.367663,0.284270,0.999967,0.004961,0.006417,-0.004949,0.999986,-0.001890,-0.006426,0.001858,0.999978
08937,9.514074,-1.615802,-1.699793,-0.006900,-0.021365,-0.013850,0.015901,0.000162,-0.003860,-0.027295,0.777404,-1.284617,0.095140,-0.016159,-0.016999,1.000000,0.000080,0.000001,-0.000019,0.999991,-0.000923,-0.003211,0.002534,-0.106697,-0.367734,0.290673,0.999967,0.005073,0.006418,-0.005061,0.999985,-0.001862,-0.006427,0.001830,0.999978
08938,9.539246,-1.644929,-1.682350,-0.008467,0.011541,0.012438,0.017586,-0.007212,-0.001714,-0.029969,0.772074,-1.284445,0.095393,-0.016449,-0.016822,1.000000,0.000088,-0.000036,-0.000009,0.999991,-0.000924,-0.003177,0.002607,-0.106820,-0.363758,0.299119,0.999966,0.005220,0.006349,-0.005209,0.999985,-0.001864,-0.006358,0.001831,0.999978
08939,9.519396,-1.592165,-1.702645,0.009471,-0.040192,-0.012117,0.013158,-0.005186,-0.003218,-0.026355,0.771021,-1.278559,0.095194,-0.015922,-0.017025,1.000000,0.000066,-0.000026,-0.000016,0.999991,-0.000929,-0.003156,0.002654,-0.107441,-0.361388,0.304455,0.999966,0.005314,0.006307,-0.005302,0.999984,-0.001875,-0.006317,0.001842,0.999978
08940,9.572302,-1.603457,-1.695600,0.019584,-0.027145,0.039926,0.008476,-0.000835,-0.001441,-0.035533,0.775933,-1.276997,0.095723,-0.016035,-0.016956,1.000000,0.000042,-0.000004,-0.000007,0.999991,-0.000917,-0.003143,0.002685,-0.105994,-0.359828,0.308011,0.999966,0.005376,0.006280,-0.005364,0.999984,-0.001850,-0.006290,0.001816,0.999979
08941,9.575746,-1.656942,-1.720863,-0.034075,-0.007429,0.056483,-0.000391,0.014311,-0.005900,-0.024600,0.773604,-1.275225,0.095756,-0.016572,-0.017215,1.000000,-0.000002,0.000072,-0.000029,0.999991,-0.000881,-0.003201,0.002652,-0.101924,-0.366517,0.304188,0.999965,0.005309,0.006397,-0.005298,0.999984,-0.001779,-0.006406,0.001745,0.999978
08942,9.517812,-1.668672,-1.724045,-0.059408,-0.002308,0.002709,0.000885,0.017790,-0.007333,-0.036431,0.781645,-1.272993,0.095176,-0.016690,-0.017249,1.000000,0.000004,0.000089,-0.000037,0.999991,-0.000837,-0.003275,0.002628,-0.096889,-0.375025,0.301467,0.999965,0.005261,0.006545,-0.005250,0.999985,-0.001691,-0.006554,0.001657,0.999977
08943,9.521057,-1.691240,-1.697061,-0.056835,0.031920,0.004980,0.008085,0.013479,-0.007339,-0.031606,0.784022,-1.273708,0.095209,-0.016915,-0.016978,1.000000,0.000040,0.000067,-0.000037,0.999991,-0.000799,-0.003335,0.002638,-0.092556,-0.381944,0.302578,0.999964,0.005281,0.006666,-0.005270,0.999985,-0.001615,-0.006675,0.001580,0.999976
08944,9.529631,-1.690087,-1.672922,-0.038436,0.047706,0.008981,0.015540,0.006840,-0.010624,-0.029831,0.774340,-1.273400,0.095295,-0.016905,-0.016734,1.000000,0.000078,0.000034,-0.000053,0.999990,-0.000790,-0.003383,0.002686,-0.091544,-0.387426,0.308073,0.999963,0.005377,0.006762,-0.005366,0.999984,-0.001598,-0.006770,0.001561,0.999976
08945,9.540207,-1.611588,-1.625663,0.049688,0.025018,-0.001854,0.022278,0.003004,-0.007254,-0.028171,0.778478,-1.269791,0.095401,-0.016118,-0.016260,1.000000,0.000111,0.000015,-0.000036,0.999990,-0.000770,-0.003406,0.002773,-0.089328,-0.390018,0.318082,0.999961,0.005551,0.006807,-0.005541,0.999983,-0.001559,-0.006816,0.001521,0.999976
08946,9.521034,-1.588995,-1.696434,0.011416,-0.041181,-0.012123,0.015523,0.003382,-0.008305,-0.038524,0.780093,-1.280522,0.095209,-0.015893,-0.016967,1.000000,0.000078,0.000017,-0.000042,0.999990,-0.000763,-0.003431,0.002837,-0.088504,-0.392960,0.325358,0.999960,0.005678,0.006858,-0.005668,0.999983,-0.001545,-0.006867,0.001506,0.999975
08947,9.537647,-1.587553,-1.650215,0.047938,-0.009624,-0.004127,0.002582,-0.000683,-0.003734,-0.029530,0.773119,-1.278513,0.095376,-0.015877,-0.016502,1.000000,0.000013,-0.000003,-0.000019,0.999990,-0.000767,-0.003429,0.002829,-0.089018,-0.392648,0.324432,0.999960,0.005662,0.006853,-0.005652,0.999983,-0.001554,-0.006862,0.001515,0.999975
08948,9.551767,-1.593657,-1.681204,0.025920,-0.026936,0.015896,-0.001864,-0.002120,-0.002920,-0.033197,0.775042,-1.281112,0.095518,-0.015938,-0.016811,1.000000,-0.000009,-0.000011,-0.000015,0.999990,-0.000779,-0.003418,0.002795,-0.090375,-0.391388,0.320546,0.999961,0.005594,0.006831,-0.005584,0.999983,-0.001577,-0.006840,0.001539,0.999975
08949,9.510413,-1.635323,-1.691597,-0.019419,-0.004587,-0.015578,-0.001864,-0.002120,-0.002920,-0.037751,0.785432,-1.283991,0.095104,-0.016355,-0.016915,1.000000,-0.000009,-0.000011,-0.000015,0.999990,-0.000791,-0.003407,0.002765,-0.091735,-0.390166,0.317209,0.999961,0.005536,0.006810,-0.005525,0.999983,-0.001601,-0.006818,0.001563,0.999976
08950,9.546901,-1.647218,-1.730415,-0.045600,-0.023186,0.028470,-0.001846,0.001339,-0.005240,-0.033793,0.775222,-1.279954,0.095468,-0.016475,-0.017305,1.000000,-0.000009,0.000007,-0.000026,0.999990,-0.000800,-0.003417,0.002727,-0.092738,-0.391302,0.312779,0.999962,0.005459,0.006829,-0.005448,0.999984,-0.001619,-0.006838,0.001581,0.999975
08951,9.524710,-1.640784,-1.722226,-0.041185,-0.022027,0.004448,0.004926,0.004423,-0.006508,-0.031715,0.779359,-1.274687,0.095246,-0.016411,-0.017225,1.000000,0.000025,0.000022,-0.000033,0.999990,-0.000794,-0.003442,0.002728,-0.092041,-0.394189,0.312936,0.999961,0.005462,0.006880,-0.005451,0.999984,-0.001606,-0.006889,0.001569,0.999975
08952,9.527336,-1.632799,-1.644669,0.017652,0.026693,-0.007583,-0.000809,0.010606,-0.005714,-0.034588,0.780415,-1.276228,0.095272,-0.016331,-0.016452,1.000000,-0.000004,0.000053,-0.000029,0.999990,-0.000771,-0.003486,0.002695,-0.089481,-0.399194,0.309099,0.999961,0.005395,0.006967,-0.005384,0.999984,-0.001562,-0.006976,0.001524,0.999975
08953,9.497009,-1.626861,-1.658823,0.003931,0.012003,-0.035603,0.007461,0.007923,-0.007056,-0.028448,0.778286,-1.280045,0.094969,-0.016271,-0.016593,1.000000,0.000037,0.000040,-0.000035,0.999990,-0.000752,-0.003525,0.002706,-0.087290,-0.403729,0.310377,0.999961,0.005417,0.007046,-0.005406,0.999984,-0.001523,-0.007054,0.001485,0.999974
08954,9.505982,-1.656407,-1.686291,-0.033875,0.013252,-0.017299,-0.002928,0.010815,-0.005355,-0.035049,0.776623,-1.275104,0.095058,-0.016567,-0.016868,1.000000,-0.000015,0.000054,-0.000027,0.999990,-0.000731,-0.003568,0.002665,-0.084868,-0.408620,0.305712,0.999960,0.005336,0.007132,-0.005325,0.999985,-0.001481,-0.007139,0.001443,0.999973
08955,9.503366,-1.632685,-1.710913,-0.035945,-0.021268,-0.019572,0.000896,0.006693,-0.005884,-0.030989,0.778994,-1.281669,0.095033,-0.016330,-0.017112,1.000000,0.000004,0.000033,-0.000029,0.999990,-0.000720,-0.003599,0.002645,-0.083587,-0.412187,0.303345,0.999960,0.005294,0.007194,-0.005284,0.999985,-0.001459,-0.007202,0.001421,0.999973
08956,9.534109,-1.637529,-1.695427,-0.021676,-0.006865,0.008448,0.002393,0.000925,-0.005958,-0.037145,0.780575,-1.292705,0.095341,-0.016378,-0.016955,1.000000,0.000012,0.000005,-0.000030,0.999990,-0.000728,-0.003609,0.002636,-0.084467,-0.413322,0.302320,0.999960,0.005276,0.007214,-0.005266,0.999985,-0.001474,-0.007221,0.001436,0.999973
08957,9.498264,-1.655314,-1.707920,-0.051209,-0.003020,-0.021291,0.006632,0.000511,-0.006676,-0.030333,0.777248,-1.288886,0.094982,-0.016556,-0.017080,1.000000,0.000033,0.000003,-0.000033,0.999990,-0.000733,-0.003621,0.002649,-0.085131,-0.414676,0.303823,0.999960,0.005303,0.007237,-0.005292,0.999985,-0.001486,-0.007245,0.001447,0.999973
08958,9.498345,-1.654954,-1.707818,-0.050931,-0.003201,-0.021290,0.010200,-0.001282,-0.003925,-0.035966,0.772654,-1.277894,0.094983,-0.016551,-0.017078,1.000000,0.000051,-0.000006,-0.000020,0.999990,-0.000730,-0.003616,0.002677,-0.084718,-0.414097,0.307081,0.999960,0.005359,0.007227,-0.005349,0.999985,-0.001479,-0.007235,0.001440,0.999973
08959,9.520228,-1.630028,-1.664360,0.001418,0.009806,-0.011579,0.014231,-0.003549,-0.004548,-0.036906,0.777679,-1.272621,0.095202,-0.016301,-0.016643,1.000000,0.000071,-0.000018,-0.000023,0.999990,-0.000733,-0.003606,0.002729,-0.085087,-0.412931,0.312989,0.999959,0.005463,0.007207,-0.005452,0.999984,-0.001485,-0.007215,0.001446,0.999973
08960,9.527982,-1.598623,-1.590248,0.076053,0.039964,-0.021899,0.008527,-0.005009,-0.004620,-0.036671,0.775602,-1.274443,0.095280,-0.015988,-0.015901,1.000000,0.000043,-0.000025,-0.000023,0.999990,-0.000748,-0.003591,0.002744,-0.086887,-0.411232,0.314796,0.999959,0.005494,0.007177,-0.005483,0.999984,-0.001516,-0.007186,0.001477,0.999973
08961,9.525533,-1.606112,-1.667459,0.017739,-0.009016,-0.009861,0.003154,-0.005500,0.002942,-0.033544,0.780900,-1.288327,0.095256,-0.016059,-0.016672,1.000000,0.000016,-0.000027,0.000015,0.999990,-0.000746,-0.003547,0.002737,-0.086554,-0.406271,0.313987,0.999960,0.005480,0.007091,-0.005469,0.999984,-0.001511,-0.007099,0.001472,0.999974
08962,9.505962,-1.623496,-1.634552,0.024497,0.026518,-0.031608,0.000447,-0.003934,-0.001054,-0.040529,0.782022,-1.273720,0.095060,-0.016235,-0.016344,1.000000,0.000002,-0.000020,-0.000005,0.999990,-0.000755,-0.003524,0.002713,-0.087590,-0.403534,0.311220,0.999960,0.005432,0.007043,-0.005421,0.999984,-0.001529,-0.007051,0.001490,0.999974
08963,9.525405,-1.606033,-1.668270,0.018267,-0.009313,-0.009862,-0.002070,-0.003975,-0.002825,-0.030030,0.774848,-1.279142,0.095254,-0.016062,-0.016681,1.000000,-0.000010,-0.000020,-0.000014,0.999990,-0.000773,-0.003506,0.002685,-0.089662,-0.401516,0.307939,0.999961,0.005374,0.007008,-0.005364,0.999984,-0.001565,-0.007016,0.001527,0.999974
08964,9.511726,-1.630103,-1.689254,-0.015414,-0.006737,-0.015572,-0.002741,-0.005354,0.000645,-0.030716,0.775707,-1.284004,0.095118,-0.016301,-0.016890,1.000000,-0.000014,-0.000027,0.000003,0.999990,-0.000786,-0.003471,0.002644,-0.091150,-0.397533,0.303245,0.999962,0.005292,0.006938,-0.005282,0.999985,-0.001591,-0.006947,0.001554,0.999975
08965,9.533959,-1.635962,-1.697785,-0.019296,-0.008194,0.008452,-0.002087,-0.007434,-0.000504,-0.034779,0.774529,-1.285245,0.095340,-0.016360,-0.016974,1.000000,-0.000010,-0.000037,-0.000003,0.999990,-0.000808,-0.003433,0.002616,-0.093655,-0.393169,0.300059,0.999963,0.005237,0.006862,-0.005226,0.999985,-0.001635,-0.006871,0.001599,0.999975
08966,9.542105,-1.635350,-1.675457,-0.000866,0.007456,0.012446,0.000240,-0.005787,-0.000959,-0.033237,0.770043,-1.277576,0.095421,-0.016354,-0.016752,1.000000,0.000001,-0.000029,-0.000005,0.999990,-0.000822,-0.003402,0.002599,-0.095174,-0.389548,0.298170,0.999963,0.005204,0.006799,-0.005193,0.999985,-0.001661,-0.006807,0.001626,0.999976
08967,9.525018,-1.605742,-1.670754,0.019336,-0.009921,-0.009865,0.003203,-0.009680,-0.000242,-0.035285,0.774015,-1.285117,0.095251,-0.016057,-0.016703,1.000000,0.000016,-0.000048,-0.000001,0.999991,-0.000844,-0.003355,0.002599,-0.097729,-0.384156,0.298116,0.999964,0.005203,0.006705,-0.005192,0.999985,-0.001706,-0.006714,0.001671,0.999976
08968,9.514070,-1.653202,-1.666867,-0.011982,0.026962,-0.013291,-0.002310,-0.012746,0.001912,-0.036360,0.783026,-1.272759,0.095142,-0.016531,-0.016662,1.000000,-0.000012,-0.000064,0.000010,0.999991,-0.000874,-0.003289,0.002569,-0.101126,-0.376608,0.294753,0.999965,0.005144,0.006573,-0.005133,0.999985,-0.001765,-0.006582,0.001731,0.999977
08969,9.519200,-1.629558,-1.670689,0.004074,0.008274,-0.011578,-0.000796,-0.015053,-0.000482,-0.034091,0.781266,-1.280634,0.095193,-0.016296,-0.016700,1.000000,-0.000004,-0.000075,-0.000002,0.999991,-0.000920,-0.003224,0.002554,-0.106419,-0.369121,0.293026,0.999966,0.005114,0.006442,-0.005102,0.999985,-0.001857,-0.006452,0.001824,0.999978
08970,9.538840,-1.682130,-1.652021,-0.013236,0.059777,0.013016,0.003252,-0.013859,-0.003427,-0.035157,0.773679,-1.280365,0.095389,-0.016823,-0.016514,1.000000,0.000016,-0.000069,-0.000017,0.999991,-0.000971,-0.003173,0.002551,-0.112165,-0.363304,0.292697,0.999967,0.005108,0.006341,-0.005096,0.999985,-0.001958,-0.006351,0.001925,0.999978
08971,9.522032,-1.683035,-1.699749,-0.049277,0.027970,0.005033,0.002409,-0.024729,-0.000724,-0.030225,0.781744,-1.284380,0.095222,-0.016830,-0.016986,1.000000,0.000012,-0.000124,-0.000004,0.999991,-0.001047,-0.003074,0.002560,-0.120891,-0.351956,0.293716,0.999968,0.005126,0.006143,-0.005113,0.999985,-0.002110,-0.006153,0.002078,0.999979
08972,9.512974,-1.652687,-1.673619,-0.010913,0.026410,-0.013288,-0.000300,-0.023162,-0.004719,-0.030568,0.777773,-1.286308,0.095131,-0.016529,-0.016725,1.000000,-0.000002,-0.000116,-0.000024,0.999992,-0.001135,-0.002994,0.002556,-0.130901,-0.342770,0.293326,0.999969,0.005119,0.005982,-0.005106,0.999984,-0.002285,-0.005994,0.002254,0.999979
