// General information: 
//  MT Manager version: 2020.5.0 
//  XDA version: 2020.5.0 build 5678 rev 108182 built on 2021-02-04
// Device information: 
//  DeviceId: 00B46A05
//  ProductCode: MTW2-3A7G6
//  Firmware Version: 4.4.0
//  Hardware Version: 2.0.0
// Device settings: 
//  Filter Profile: human(46.1)
//  Option Flags: Orientation Smoother Disabled, Position/Velocity Smoother Disabled, Continuous Zero Rotation Update Disabled, AHS Disabled, ICC Disabled
// Coordinate system: ENU
PacketCounter,Acc_X,Acc_Y,Acc_Z,FreeAcc_E,FreeAcc_N,FreeAcc_U,Gyr_X,Gyr_Y,Gyr_Z,Mag_X,Mag_Y,Mag_Z,VelInc_X,VelInc_Y,VelInc_Z,OriInc_q0,OriInc_q1,OriInc_q2,OriInc_q3,Quat_q0,Quat_q1,Quat_q2,Quat_q3,Roll,Pitch,Yaw,Mat[1][1],Mat[2][1],Mat[3][1],Mat[1][2],Mat[2][2],Mat[3][2],Mat[1][3],Mat[2][3],Mat[3][3]
08622,5.712041,0.704168,7.945395,-0.001753,0.033233,-0.001905,0.001209,0.003352,-0.000489,0.673481,-0.789463,-1.465604,0.057122,0.007041,0.079453,1.000000,0.000006,0.000017,-0.000002,-1.000000,-0.000316,-0.000559,0.000692,0.036112,0.064060,-0.079281,0.999998,-0.001384,-0.001118,0.001384,0.999999,0.000630,0.001117,-0.000632,0.999999
08623,5.728561,0.675030,7.938277,0.017144,0.004740,-0.000042,0.002816,0.006345,0.004114,0.679799,-0.780419,-1.464358,0.057288,0.006750,0.079381,1.000000,0.000014,0.000032,0.000021,-1.000000,-0.000313,-0.000563,0.000677,0.035817,0.064579,-0.077568,0.999998,-0.001354,-0.001127,0.001355,0.999999,0.000625,0.001126,-0.000627,0.999999
08624,5.715690,0.683406,7.957815,-0.005141,0.011435,0.008861,0.002296,0.003951,0.001280,0.680629,-0.782488,-1.462165,0.057158,0.006834,0.079577,1.000000,0.000011,0.000020,0.000006,-1.000000,-0.000319,-0.000554,0.000662,0.036478,0.063468,-0.075840,0.999999,-0.001324,-0.001108,0.001324,0.999999,0.000637,0.001107,-0.000638,0.999999
08625,5.727803,0.674857,7.938839,0.016080,0.004729,-0.000040,-0.002533,0.005943,0.006118,0.675537,-0.780096,-1.461353,0.057280,0.006751,0.079387,1.000000,-0.000013,0.000030,0.000031,-1.000000,-0.000289,-0.000555,0.000655,0.033037,0.063663,-0.075001,0.999999,-0.001309,-0.001111,0.001310,0.999999,0.000577,0.001110,-0.000578,0.999999
08626,5.714879,0.682853,7.958444,-0.006163,0.011450,0.008860,0.001312,0.006025,0.003807,0.675946,-0.783039,-1.450202,0.057151,0.006829,0.079583,1.000000,0.000007,0.000030,0.000019,-1.000000,-0.000281,-0.000557,0.000643,0.032196,0.063858,-0.073662,0.999999,-0.001286,-0.001115,0.001286,0.999999,0.000562,0.001114,-0.000563,0.999999
08627,5.735069,0.686842,7.908331,0.039106,0.019814,-0.019703,-0.001549,0.003869,0.003591,0.680152,-0.781861,-1.457315,0.057352,0.006870,0.079082,1.000000,-0.000008,0.000019,0.000018,-1.000000,-0.000263,-0.000550,0.000644,0.030112,0.062990,-0.073748,0.999999,-0.001287,-0.001099,0.001288,0.999999,0.000526,0.001099,-0.000527,0.999999
08628,5.747150,0.683413,7.948932,0.025498,0.013389,0.019987,-0.002533,0.005943,0.006118,0.677293,-0.780158,-1.459193,0.057474,0.006837,0.079488,1.000000,-0.000013,0.000030,0.000031,-1.000000,-0.000238,-0.000553,0.000630,0.027222,0.063386,-0.072197,0.999999,-0.001260,-0.001106,0.001261,0.999999,0.000475,0.001106,-0.000477,0.999999
08629,5.693214,0.672151,7.950201,-0.018524,0.002661,-0.011166,-0.002114,0.005665,0.004656,0.678190,-0.781151,-1.458350,0.056934,0.006724,0.079500,1.000000,-0.000011,0.000028,0.000023,-1.000000,-0.000214,-0.000554,0.000628,0.024471,0.063492,-0.071908,0.999999,-0.001255,-0.001108,0.001255,0.999999,0.000427,0.001108,-0.000428,0.999999
08630,5.713297,0.681317,7.959712,-0.008129,0.011374,0.008859,-0.000610,0.005984,0.004963,0.677629,-0.782023,-1.456731,0.057135,0.006815,0.079595,1.000000,-0.000003,0.000030,0.000025,-1.000000,-0.000196,-0.000556,0.000616,0.022463,0.063714,-0.070547,0.999999,-0.001231,-0.001112,0.001232,0.999999,0.000392,0.001112,-0.000393,0.999999
08631,5.720946,0.693582,7.928912,0.015426,0.026454,-0.010801,-0.000192,0.005706,0.003500,0.679486,-0.784822,-1.453876,0.057212,0.006937,0.079287,1.000000,-0.000001,0.000029,0.000018,-1.000000,-0.000184,-0.000558,0.000612,0.020990,0.063899,-0.070149,0.999999,-0.001224,-0.001115,0.001225,0.999999,0.000366,0.001115,-0.000368,0.999999
08632,5.708741,0.642255,7.943860,-0.000603,-0.025938,-0.009298,0.002002,0.006984,0.000485,0.669676,-0.773771,-1.464910,0.057090,0.006422,0.079437,1.000000,0.000010,0.000035,0.000002,-1.000000,-0.000193,-0.000568,0.000608,0.022088,0.065148,-0.069710,0.999999,-0.001217,-0.001137,0.001217,0.999999,0.000385,0.001137,-0.000387,0.999999
08633,5.728862,0.651682,7.953325,0.009798,-0.017200,0.010730,0.000771,0.003551,0.007528,0.675529,-0.779568,-1.465527,0.057290,0.006519,0.079532,1.000000,0.000004,0.000018,0.000038,-1.000000,-0.000173,-0.000558,0.000587,0.019784,0.063910,-0.067206,0.999999,-0.001173,-0.001115,0.001173,0.999999,0.000345,0.001115,-0.000347,0.999999
08634,5.711794,0.680646,7.960848,-0.010222,0.011412,0.008857,-0.000565,0.001795,0.001064,0.685457,-0.779932,-1.463864,0.057119,0.006807,0.079608,1.000000,-0.000003,0.000009,0.000005,-1.000000,-0.000162,-0.000534,0.000579,0.018516,0.061189,-0.066313,0.999999,-0.001157,-0.001068,0.001158,0.999999,0.000323,0.001068,-0.000324,0.999999
08635,5.744567,0.681801,7.950937,0.021899,0.013430,0.019995,0.001878,0.004230,0.002743,0.668801,-0.771565,-1.451135,0.057447,0.006818,0.079508,1.000000,0.000009,0.000021,0.000014,-1.000000,-0.000160,-0.000528,0.000573,0.018300,0.060567,-0.065631,0.999999,-0.001145,-0.001057,0.001146,0.999999,0.000319,0.001057,-0.000321,0.999999
08636,5.723742,0.672139,7.941998,0.010494,0.004746,-0.000033,-0.000044,0.004189,0.003898,0.675566,-0.776975,-1.456788,0.057239,0.006723,0.079419,1.000000,-0.000000,0.000021,0.000019,-1.000000,-0.000145,-0.000522,0.000571,0.016613,0.059804,-0.065452,0.999999,-0.001142,-0.001044,0.001143,0.999999,0.000290,0.001043,-0.000291,0.999999
08637,5.690312,0.670882,7.952386,-0.022621,0.002752,-0.011175,0.002002,0.006984,0.000485,0.677118,-0.780644,-1.459369,0.056906,0.006708,0.079522,1.000000,0.000010,0.000035,0.000002,-1.000000,-0.000150,-0.000531,0.000573,0.017129,0.060862,-0.065670,0.999999,-0.001146,-0.001062,0.001146,0.999999,0.000299,0.001062,-0.000300,0.999999
08638,5.743392,0.681865,7.951781,0.020371,0.013487,0.019999,0.004219,0.003992,0.000126,0.676291,-0.781253,-1.458216,0.057436,0.006817,0.079517,1.000000,0.000021,0.000020,0.000001,-1.000000,-0.000165,-0.000524,0.000566,0.018925,0.060100,-0.064794,0.999999,-0.001131,-0.001049,0.001131,0.999999,0.000330,0.001049,-0.000331,0.999999
08639,5.722513,0.672436,7.942858,0.008979,0.004771,-0.000031,0.000227,0.005427,0.002038,0.679388,-0.783521,-1.465877,0.057227,0.006725,0.079427,1.000000,0.000001,0.000027,0.000010,-1.000000,-0.000159,-0.000525,0.000567,0.018141,0.060196,-0.064945,0.999999,-0.001134,-0.001051,0.001134,0.999999,0.000317,0.001050,-0.000318,0.999999
08640,5.713359,0.714062,7.919366,0.013138,0.048329,-0.021559,0.001460,0.004509,0.004205,0.682317,-0.782285,-1.460329,0.057135,0.007141,0.079192,1.000000,0.000007,0.000023,0.000021,-1.000000,-0.000152,-0.000519,0.000551,0.017399,0.059516,-0.063091,0.999999,-0.001101,-0.001039,0.001101,0.999999,0.000304,0.001038,-0.000305,0.999999
08641,5.729691,0.690226,7.971899,-0.002874,0.020214,0.028884,-0.000317,0.007303,-0.003452,0.675240,-0.784457,-1.455078,0.057300,0.006901,0.079717,1.000000,-0.000002,0.000037,-0.000017,-1.000000,-0.000159,-0.000532,0.000575,0.018135,0.060945,-0.065896,0.999999,-0.001150,-0.001064,0.001150,0.999999,0.000317,0.001063,-0.000318,0.999999
08642,5.716677,0.693244,7.932020,0.009825,0.026483,-0.010794,0.002252,0.008141,0.005179,0.685488,-0.782668,-1.466838,0.057170,0.006933,0.079318,1.000000,0.000011,0.000041,0.000026,-1.000000,-0.000154,-0.000546,0.000552,0.017641,0.062564,-0.063284,0.999999,-0.001105,-0.001092,0.001105,0.999999,0.000308,0.001092,-0.000309,0.999999
08643,5.728732,0.684744,7.913105,0.031054,0.019770,-0.019674,-0.001131,0.003591,0.002128,0.675043,-0.782593,-1.450201,0.057289,0.006848,0.079130,1.000000,-0.000006,0.000018,0.000011,-1.000000,-0.000142,-0.000538,0.000558,0.016246,0.061607,-0.063918,0.999999,-0.001116,-0.001075,0.001116,0.999999,0.000284,0.001075,-0.000285,0.999999
08644,5.720273,0.671998,7.944509,0.006522,0.004654,-0.000029,-0.000192,0.005706,0.003500,0.680106,-0.791188,-1.453483,0.057205,0.006721,0.079443,1.000000,-0.000001,0.000029,0.000017,-1.000000,-0.000132,-0.000541,0.000557,0.015143,0.061993,-0.063816,0.999999,-0.001114,-0.001082,0.001114,0.999999,0.000264,0.001082,-0.000266,0.999999
08645,5.719893,0.671828,7.944797,0.006025,0.004665,-0.000029,0.001460,0.004509,0.004205,0.677551,-0.779773,-1.457460,0.057201,0.006719,0.079447,1.000000,0.000007,0.000023,0.000021,-1.000000,-0.000125,-0.000536,0.000546,0.014238,0.061461,-0.062585,0.999999,-0.001092,-0.001073,0.001093,0.999999,0.000249,0.001072,-0.000250,0.999999
08646,5.715125,0.692636,7.933191,0.007913,0.026335,-0.010791,0.001732,0.005747,0.002345,0.674482,-0.786909,-1.462812,0.057153,0.006926,0.079330,1.000000,0.000009,0.000029,0.000012,-1.000000,-0.000129,-0.000541,0.000533,0.014793,0.061956,-0.061033,0.999999,-0.001065,-0.001081,0.001065,0.999999,0.000258,0.001081,-0.000259,0.999999
08647,5.739521,0.681206,7.954632,0.015956,0.013282,0.020007,-0.000338,0.007223,0.003101,0.675478,-0.781700,-1.455829,0.057398,0.006813,0.079544,1.000000,-0.000002,0.000036,0.000016,-1.000000,-0.000117,-0.000550,0.000531,0.013343,0.063026,-0.060809,0.999999,-0.001061,-0.001100,0.001062,0.999999,0.000233,0.001100,-0.000234,0.999999
08648,5.726659,0.689382,7.974151,-0.006314,0.019946,0.028883,0.000521,0.002394,0.002834,0.679425,-0.782267,-1.455466,0.057267,0.006894,0.079741,1.000000,0.000003,0.000012,0.000014,-1.000000,-0.000113,-0.000533,0.000508,0.012943,0.061095,-0.058260,0.999999,-0.001017,-0.001066,0.001017,0.999999,0.000226,0.001066,-0.000227,0.999999
08649,5.730769,0.663163,7.926751,0.025757,-0.002219,-0.008902,0.003089,0.007583,0.002255,0.675428,-0.784071,-1.457015,0.057311,0.006631,0.079265,1.000000,0.000015,0.000038,0.000011,-1.000000,-0.000117,-0.000545,0.000500,0.013361,0.062410,-0.057269,0.999999,-0.001000,-0.001089,0.001000,0.999999,0.000233,0.001089,-0.000234,0.999999
08650,5.730285,0.663179,7.927099,0.025271,-0.002292,-0.008901,-0.000859,0.004829,0.000267,0.678586,-0.781031,-1.452623,0.057305,0.006632,0.079270,1.000000,-0.000004,0.000024,0.000001,-1.000000,-0.000115,-0.000544,0.000502,0.013168,0.062319,-0.057532,0.999999,-0.001004,-0.001088,0.001004,0.999999,0.000230,0.001087,-0.000231,0.999999
08651,5.733560,0.701822,7.943906,0.016280,0.034956,0.009248,0.001460,0.004510,0.004205,0.681044,-0.783522,-1.461068,0.057337,0.007019,0.079438,1.000000,0.000007,0.000023,0.000021,-1.000000,-0.000107,-0.000539,0.000491,0.012264,0.061787,-0.056301,0.999999,-0.000983,-0.001078,0.000983,0.999999,0.000214,0.001078,-0.000215,0.999999
08652,5.712667,0.692223,7.934997,0.004940,0.026175,-0.010789,0.001732,0.005747,0.002345,0.688381,-0.777763,-1.461239,0.057129,0.006922,0.079348,1.000000,0.000009,0.000029,0.000012,-1.000000,-0.000109,-0.000543,0.000488,0.012467,0.062278,-0.055880,0.999999,-0.000975,-0.001087,0.000976,1.000000,0.000218,0.001087,-0.000219,0.999999
08653,5.716608,0.671248,7.947210,0.002091,0.004398,-0.000027,-0.000191,0.005707,0.003499,0.679360,-0.784921,-1.463327,0.057168,0.006714,0.079470,1.000000,-0.000001,0.000029,0.000017,-1.000000,-0.000096,-0.000545,0.000484,0.010996,0.062463,-0.055481,0.999999,-0.000968,-0.001090,0.000969,1.000000,0.000192,0.001090,-0.000193,0.999999
08654,5.716172,0.671143,7.947532,0.001648,0.004394,-0.000027,0.001732,0.005747,0.002345,0.677775,-0.780117,-1.459446,0.057164,0.006711,0.079474,1.000000,0.000009,0.000029,0.000012,-1.000000,-0.000095,-0.000550,0.000497,0.010889,0.063046,-0.056961,0.999999,-0.000994,-0.001100,0.000994,0.999999,0.000190,0.001100,-0.000191,0.999999
08655,5.707825,0.653277,7.919346,0.011999,-0.011047,-0.028935,-0.000293,0.003033,-0.000797,0.675487,-0.780867,-1.460864,0.057079,0.006533,0.079193,1.000000,-0.000001,0.000015,-0.000004,-1.000000,-0.000095,-0.000540,0.000512,0.010873,0.061911,-0.058693,0.999999,-0.001024,-0.001081,0.001025,0.999999,0.000190,0.001080,-0.000191,0.999999
08656,5.731608,0.701625,7.945332,0.013857,0.034912,0.009252,0.003236,0.006067,0.002653,0.670558,-0.777746,-1.459860,0.057318,0.007016,0.079452,1.000000,0.000016,0.000030,0.000013,-1.000000,-0.000099,-0.000542,0.000496,0.011341,0.062159,-0.056836,0.999999,-0.000992,-0.001085,0.000992,0.999999,0.000198,0.001085,-0.000199,0.999999
08657,5.723106,0.683754,7.917260,0.024211,0.019471,-0.019654,0.000081,0.006944,0.001639,0.684453,-0.782508,-1.459119,0.057234,0.006838,0.079171,1.000000,0.000000,0.000035,0.000008,-1.000000,-0.000093,-0.000551,0.000499,0.010581,0.063140,-0.057161,0.999999,-0.000998,-0.001102,0.000998,0.999999,0.000185,0.001102,-0.000186,0.999999
08658,5.751857,0.651452,7.950611,0.029860,-0.015385,0.021911,0.001313,0.006027,0.003807,0.671893,-0.777320,-1.457953,0.057521,0.006515,0.079504,1.000000,0.000007,0.000030,0.000019,-1.000000,-0.000086,-0.000553,0.000487,0.009776,0.063407,-0.055847,0.999999,-0.000975,-0.001107,0.000975,1.000000,0.000171,0.001106,-0.000172,0.999999
08659,5.713997,0.671285,7.949084,-0.000886,0.004422,-0.000027,0.006664,0.006426,0.001807,0.673483,-0.785877,-1.453470,0.057142,0.006711,0.079489,1.000000,0.000033,0.000032,0.000009,-1.000000,-0.000105,-0.000559,0.000471,0.012041,0.064084,-0.053914,0.999999,-0.000941,-0.001118,0.000941,1.000000,0.000210,0.001118,-0.000211,0.999999
08660,5.713527,0.671500,7.949404,-0.001435,0.004375,-0.000027,0.001732,0.005747,0.002345,0.675199,-0.778253,-1.456278,0.057137,0.006715,0.079492,1.000000,0.000009,0.000029,0.000012,-1.000000,-0.000107,-0.000559,0.000444,0.012183,0.064045,-0.050901,0.999999,-0.000888,-0.001118,0.000889,1.000000,0.000213,0.001118,-0.000214,0.999999
08661,5.733548,0.681052,7.958952,0.008942,0.013107,0.020016,0.000501,0.006665,0.000176,0.672899,-0.781962,-1.461027,0.057338,0.006810,0.079588,1.000000,0.000003,0.000033,0.000001,-1.000000,-0.000106,-0.000567,0.000452,0.012113,0.064936,-0.051775,0.999999,-0.000904,-0.001133,0.000904,1.000000,0.000211,0.001133,-0.000212,0.999999
08662,5.716861,0.650672,7.962038,-0.004846,-0.017404,0.010733,0.001586,0.007264,0.001946,0.670742,-0.774825,-1.463047,0.057171,0.006507,0.079618,1.000000,0.000008,0.000036,0.000010,-1.000000,-0.000105,-0.000574,0.000436,0.012023,0.065765,-0.049982,0.999999,-0.000872,-0.001148,0.000873,1.000000,0.000210,0.001148,-0.000211,0.999999
08663,5.695944,0.641097,7.953134,-0.016218,-0.026114,-0.009311,-0.000711,0.003313,0.000665,0.675533,-0.777442,-1.457161,0.056961,0.006411,0.079530,1.000000,-0.000004,0.000017,0.000003,-1.000000,-0.000099,-0.000565,0.000447,0.011319,0.064719,-0.051165,0.999999,-0.000893,-0.001130,0.000893,1.000000,0.000198,0.001129,-0.000199,0.999999
08664,5.716016,0.650417,7.962665,-0.005924,-0.017330,0.010733,0.000329,0.008103,0.006331,0.670211,-0.776975,-1.460633,0.057163,0.006506,0.079624,1.000000,0.000002,0.000041,0.000032,-1.000000,-0.000077,-0.000573,0.000424,0.008776,0.065666,-0.048525,0.999999,-0.000847,-0.001146,0.000847,1.000000,0.000153,0.001146,-0.000154,0.999999
08665,5.727170,0.701707,7.948524,0.009177,0.034975,0.009257,0.002698,0.007942,-0.002838,0.675347,-0.782226,-1.458994,0.057275,0.007015,0.079483,1.000000,0.000013,0.000040,-0.000014,-1.000000,-0.000094,-0.000588,0.000436,0.010695,0.067430,-0.050012,0.999999,-0.000873,-0.001177,0.000873,1.000000,0.000187,0.001177,-0.000188,0.999999
08666,5.743415,0.672621,7.941639,0.027968,0.006469,0.011163,0.002252,0.008143,0.005178,0.680400,-0.778270,-1.463101,0.057437,0.006727,0.079414,1.000000,0.000011,0.000041,0.000026,-1.000000,-0.000085,-0.000597,0.000403,0.009725,0.068469,-0.046230,0.999999,-0.000807,-0.001195,0.000807,1.000000,0.000170,0.001195,-0.000171,0.999999
08667,5.697295,0.679624,7.971318,-0.026865,0.011224,0.008826,-0.000337,0.007225,0.003099,0.673672,-0.781071,-1.459173,0.056976,0.006797,0.079711,1.000000,-0.000002,0.000036,0.000015,-1.000000,-0.000072,-0.000607,0.000402,0.008276,0.069540,-0.046006,0.999999,-0.000803,-0.001214,0.000803,1.000000,0.000144,0.001214,-0.000145,0.999999
08668,5.709315,0.671175,7.952457,-0.005660,0.004508,-0.000029,0.001732,0.005748,0.002345,0.673031,-0.779714,-1.450747,0.057095,0.006712,0.079523,1.000000,0.000009,0.000029,0.000012,-1.000000,-0.000070,-0.000608,0.000396,0.008046,0.069625,-0.045319,0.999999,-0.000791,-0.001215,0.000791,1.000000,0.000140,0.001215,-0.000141,0.999999
08669,5.725032,0.701528,7.950080,0.007077,0.035026,0.009259,0.000228,0.005429,0.002036,0.682129,-0.788551,-1.458394,0.057252,0.007016,0.079499,1.000000,0.000001,0.000027,0.000010,-1.000000,-0.000064,-0.000608,0.000397,0.007264,0.069720,-0.045469,0.999999,-0.000794,-0.001217,0.000794,1.000000,0.000127,0.001217,-0.000128,0.999999
08670,5.720976,0.662731,7.933858,0.015104,-0.002308,-0.008880,0.001733,0.005748,0.002345,0.662134,-0.768198,-1.458593,0.057212,0.006627,0.079337,1.000000,0.000009,0.000029,0.000012,-1.000000,-0.000067,-0.000612,0.000381,0.007678,0.070134,-0.043612,0.999999,-0.000761,-0.001224,0.000761,1.000000,0.000134,0.001224,-0.000135,0.999999
08671,5.712332,0.650202,7.965326,-0.009497,-0.017350,0.010730,0.003903,0.006946,0.005885,0.679097,-0.775049,-1.453752,0.057126,0.006502,0.079651,1.000000,0.000020,0.000035,0.000029,-1.000000,-0.000064,-0.000619,0.000355,0.007287,0.070912,-0.040690,0.999999,-0.000710,-0.001238,0.000710,1.000000,0.000127,0.001238,-0.000128,0.999999
08672,5.728083,0.680760,7.962910,0.003150,0.013249,0.020020,0.003137,0.003392,-0.001642,0.670314,-0.781171,-1.463706,0.057282,0.006806,0.079628,1.000000,0.000016,0.000017,-0.000008,-1.000000,-0.000076,-0.000606,0.000364,0.008661,0.069502,-0.041691,0.999999,-0.000728,-0.001213,0.000728,1.000000,0.000151,0.001213,-0.000152,0.999999
08673,5.715477,0.683977,7.922750,0.015895,0.019591,-0.019637,0.001213,0.003353,-0.000489,0.672392,-0.784719,-1.464088,0.057156,0.006839,0.079227,1.000000,0.000006,0.000017,-0.000002,-1.000000,-0.000081,-0.000598,0.000373,0.009235,0.068533,-0.042763,0.999999,-0.000746,-0.001196,0.000747,1.000000,0.000161,0.001196,-0.000162,0.999999
08674,5.727763,0.675618,7.903701,0.037021,0.012857,-0.028482,0.001605,0.002995,0.004603,0.685414,-0.775351,-1.459200,0.057279,0.006757,0.079036,1.000000,0.000008,0.000015,0.000023,-1.000000,-0.000073,-0.000580,0.000336,0.008370,0.066454,-0.038536,0.999999,-0.000673,-0.001160,0.000673,1.000000,0.000146,0.001160,-0.000147,0.999999
08675,5.744124,0.651761,7.956174,0.020904,-0.015251,0.021935,0.002152,0.005468,0.000883,0.682935,-0.779832,-1.459934,0.057443,0.006517,0.079560,1.000000,0.000011,0.000027,0.000004,-1.000000,-0.000078,-0.000581,0.000337,0.008867,0.066627,-0.038576,0.999999,-0.000673,-0.001163,0.000673,1.000000,0.000155,0.001163,-0.000156,0.999999
08676,5.706320,0.671571,7.954572,-0.009746,0.004575,-0.000032,0.002152,0.005468,0.000883,0.680148,-0.785468,-1.461913,0.057065,0.006715,0.079544,1.000000,0.000011,0.000027,0.000004,-1.000000,-0.000081,-0.000587,0.000361,0.009291,0.067222,-0.041332,0.999999,-0.000721,-0.001173,0.000722,1.000000,0.000162,0.001173,-0.000163,0.999999
08677,5.734568,0.693734,7.932964,0.024729,0.028353,0.000418,0.002152,0.005468,0.000883,0.677790,-0.781556,-1.459885,0.057348,0.006937,0.079328,1.000000,0.000011,0.000027,0.000004,-1.000000,-0.000086,-0.000588,0.000361,0.009788,0.067395,-0.041372,0.999999,-0.000722,-0.001176,0.000722,1.000000,0.000171,0.001176,-0.000172,0.999999
08678,5.726150,0.675960,7.904840,0.035112,0.012860,-0.028475,0.003237,0.006068,0.002653,0.677094,-0.778939,-1.466450,0.057264,0.006759,0.079047,1.000000,0.000016,0.000030,0.000013,-1.000000,-0.000091,-0.000592,0.000346,0.010458,0.067844,-0.039648,0.999999,-0.000692,-0.001184,0.000692,1.000000,0.000183,0.001184,-0.000183,0.999999
08679,5.713179,0.684428,7.924369,0.012879,0.019609,-0.019633,0.002152,0.005469,0.000883,0.675824,-0.785793,-1.463845,0.057134,0.006844,0.079242,1.000000,0.000011,0.000027,0.000004,-1.000000,-0.000096,-0.000594,0.000346,0.010955,0.068018,-0.039688,0.999999,-0.000693,-0.001187,0.000693,1.000000,0.000191,0.001187,-0.000192,0.999999
08680,5.712836,0.684441,7.924614,0.012329,0.019621,-0.019632,-0.000711,0.003313,0.000664,0.683380,-0.782144,-1.458043,0.057130,0.006845,0.079245,1.000000,-0.000004,0.000017,0.000003,-1.000000,-0.000090,-0.000582,0.000349,0.010243,0.066654,-0.039960,0.999999,-0.000697,-0.001163,0.000698,1.000000,0.000179,0.001163,-0.000180,0.999999
08681,5.704309,0.671945,7.955983,-0.012285,0.004584,-0.000035,0.002153,0.005469,0.000883,0.680626,-0.776630,-1.454627,0.057045,0.006719,0.079558,1.000000,0.000011,0.000027,0.000004,-1.000000,-0.000094,-0.000583,0.000349,0.010740,0.066827,-0.040000,0.999999,-0.000698,-0.001166,0.000698,1.000000,0.000187,0.001166,-0.000188,0.999999
08682,5.736908,0.673240,7.946288,0.019873,0.006543,0.011183,0.002153,0.005469,0.000883,0.671704,-0.780788,-1.453922,0.057371,0.006732,0.079461,1.000000,0.000011,0.000027,0.000004,-1.000000,-0.000100,-0.000588,0.000362,0.011408,0.067365,-0.041459,0.999999,-0.000724,-0.001176,0.000724,1.000000,0.000199,0.001176,-0.000200,0.999999
08683,5.703456,0.672078,7.956584,-0.013218,0.004577,-0.000036,0.000228,0.005429,0.002035,0.676364,-0.780969,-1.458737,0.057037,0.006721,0.079564,1.000000,0.000001,0.000027,0.000010,-1.000000,-0.000093,-0.000589,0.000363,0.010627,0.067461,-0.041609,0.999999,-0.000726,-0.001177,0.000726,1.000000,0.000185,0.001177,-0.000186,0.999999
08684,5.728090,0.655315,7.918470,0.029730,-0.008932,-0.017706,0.001733,0.005749,0.002344,0.676784,-0.775576,-1.458484,0.057283,0.006553,0.079183,1.000000,0.000009,0.000029,0.000012,-1.000000,-0.000093,-0.000589,0.000347,0.010659,0.067545,-0.039812,0.999999,-0.000695,-0.001179,0.000695,1.000000,0.000186,0.001179,-0.000187,0.999999
08685,5.702652,0.672088,7.957159,-0.014244,0.004560,-0.000037,0.002298,0.003952,0.001282,0.676851,-0.779162,-1.466949,0.057028,0.006720,0.079571,1.000000,0.000011,0.000020,0.000006,-1.000000,-0.000097,-0.000583,0.000346,0.011134,0.066834,-0.039678,0.999999,-0.000693,-0.001166,0.000693,1.000000,0.000194,0.001166,-0.000195,0.999999
08686,5.710266,0.690100,7.985836,-0.025667,0.020072,0.028852,0.001068,0.004870,-0.000888,0.679241,-0.782488,-1.463162,0.057105,0.006900,0.079857,1.000000,0.000005,0.000024,-0.000004,-1.000000,-0.000100,-0.000580,0.000362,0.011481,0.066524,-0.041480,0.999999,-0.000724,-0.001161,0.000724,1.000000,0.000200,0.001161,-0.000201,0.999999
08687,5.730576,0.694316,7.935797,0.019699,0.028384,0.000430,0.001733,0.005749,0.002344,0.675651,-0.776935,-1.457326,0.057308,0.006943,0.079356,1.000000,0.000009,0.000029,0.000012,-1.000000,-0.000099,-0.000583,0.000358,0.011289,0.066788,-0.040971,0.999999,-0.000715,-0.001166,0.000715,1.000000,0.000197,0.001166,-0.000198,0.999999
08688,5.714114,0.663863,7.938707,0.005950,-0.002110,-0.008870,0.000519,0.002396,0.002833,0.679522,-0.785672,-1.459367,0.057142,0.006639,0.079386,1.000000,0.000003,0.000012,0.000014,-1.000000,-0.000092,-0.000567,0.000356,0.010477,0.065032,-0.040838,0.999999,-0.000713,-0.001135,0.000713,1.000000,0.000183,0.001135,-0.000184,0.999999
08689,5.713701,0.663655,7.939021,0.005452,-0.002099,-0.008870,-0.001986,0.008424,0.002389,0.684173,-0.786685,-1.459147,0.057140,0.006638,0.079388,1.000000,-0.000010,0.000042,0.000012,-1.000000,-0.000074,-0.000583,0.000362,0.008463,0.066821,-0.041448,0.999999,-0.000723,-0.001166,0.000724,1.000000,0.000148,0.001166,-0.000149,0.999999
08690,5.733767,0.672969,7.948578,0.015851,0.006540,0.011190,0.001604,0.002995,0.004603,0.679661,-0.775493,-1.461235,0.057339,0.006730,0.079485,1.000000,0.000008,0.000015,0.000023,-1.000000,-0.000070,-0.000573,0.000346,0.008039,0.065678,-0.039620,0.999999,-0.000692,-0.001146,0.000692,1.000000,0.000140,0.001146,-0.000141,0.999999
08691,5.700404,0.671677,7.958805,-0.017236,0.004580,-0.000042,0.001313,0.006029,0.003805,0.671940,-0.774135,-1.465132,0.057006,0.006717,0.079586,1.000000,0.000007,0.000030,0.000019,-1.000000,-0.000063,-0.000576,0.000337,0.007158,0.066032,-0.038563,0.999999,-0.000673,-0.001152,0.000673,1.000000,0.000125,0.001152,-0.000126,0.999999
08692,5.745650,0.664415,7.929859,0.036543,-0.000113,0.002366,0.002024,0.002715,0.003142,0.677607,-0.778695,-1.469675,0.057457,0.006644,0.079298,1.000000,0.000010,0.000014,0.000016,-1.000000,-0.000057,-0.000560,0.000337,0.006502,0.064218,-0.038618,0.999999,-0.000674,-0.001121,0.000674,1.000000,0.000113,0.001121,-0.000114,0.999999
08693,5.708028,0.684102,7.928108,0.005850,0.019713,-0.019626,0.001879,0.004232,0.002743,0.682971,-0.780682,-1.465425,0.057082,0.006841,0.079280,1.000000,0.000009,0.000021,0.000014,-1.000000,-0.000055,-0.000555,0.000331,0.006288,0.063597,-0.037935,0.999999,-0.000662,-0.001110,0.000662,1.000000,0.000110,0.001110,-0.000110,0.999999
08694,5.711920,0.663241,7.940338,0.002938,-0.002023,-0.008869,0.001588,0.007266,0.001945,0.683149,-0.779790,-1.463999,0.057122,0.006632,0.079401,1.000000,0.000008,0.000036,0.000010,-1.000000,-0.000052,-0.000564,0.000336,0.005895,0.064621,-0.038488,0.999999,-0.000672,-0.001128,0.000672,1.000000,0.000103,0.001128,-0.000104,0.999999
08695,5.711399,0.663242,7.940712,0.002441,-0.002013,-0.008869,0.002818,0.006348,0.004114,0.679946,-0.784152,-1.456191,0.057116,0.006632,0.079405,1.000000,0.000014,0.000032,0.000021,-1.000000,-0.000049,-0.000568,0.000321,0.005603,0.065142,-0.036773,0.999999,-0.000642,-0.001137,0.000642,1.000000,0.000098,0.001137,-0.000099,0.999999
08696,5.711008,0.663292,7.940989,0.001978,-0.002037,-0.008868,0.002299,0.003952,0.001282,0.679401,-0.780442,-1.457106,0.057112,0.006632,0.079409,1.000000,0.000011,0.000020,0.000006,-1.000000,-0.000055,-0.000564,0.000325,0.006279,0.064631,-0.037224,0.999999,-0.000650,-0.001128,0.000650,1.000000,0.000110,0.001128,-0.000110,0.999999
08697,5.751821,0.682331,7.959587,0.023168,0.015400,0.031258,0.000664,0.000880,0.003232,0.684430,-0.775879,-1.455738,0.057518,0.006824,0.079596,1.000000,0.000003,0.000004,0.000016,-1.000000,-0.000048,-0.000542,0.000322,0.005429,0.062072,-0.036851,0.999999,-0.000643,-0.001083,0.000643,1.000000,0.000095,0.001083,-0.000095,0.999999
08698,5.706309,0.684126,7.929343,0.003436,0.019753,-0.019625,0.003383,0.004552,0.003052,0.678331,-0.775251,-1.458546,0.057065,0.006841,0.079292,1.000000,0.000017,0.000023,0.000015,-1.000000,-0.000052,-0.000540,0.000323,0.005896,0.061930,-0.037042,0.999999,-0.000647,-0.001081,0.000647,1.000000,0.000103,0.001081,-0.000104,0.999999
08699,5.713995,0.701888,7.957985,-0.007960,0.035226,0.009258,-0.000321,0.002957,0.005755,0.680973,-0.777521,-1.459295,0.057141,0.007021,0.079579,1.000000,-0.000002,0.000015,0.000029,-1.000000,-0.000032,-0.000527,0.000312,0.003691,0.060436,-0.035747,0.999999,-0.000624,-0.001055,0.000624,1.000000,0.000064,0.001055,-0.000065,0.999999
08700,5.730660,0.672410,7.950865,0.010898,0.006721,0.011197,0.001604,0.002996,0.004603,0.674174,-0.777260,-1.453594,0.057308,0.006725,0.079508,1.000000,0.000008,0.000015,0.000023,-1.000000,-0.000023,-0.000516,0.000311,0.002652,0.059105,-0.035662,0.999999,-0.000622,-0.001032,0.000622,1.000000,0.000046,0.001032,-0.000047,0.999999
08701,5.701739,0.650256,7.972908,-0.024588,-0.017013,0.010704,0.001604,0.002996,0.004603,0.678618,-0.788308,-1.457271,0.057018,0.006503,0.079728,1.000000,0.000008,0.000015,0.000023,-1.000000,-0.000015,-0.000503,0.000299,0.001725,0.057689,-0.034256,0.999999,-0.000598,-0.001007,0.000598,1.000000,0.000030,0.001007,-0.000031,0.999999
08702,5.725731,0.698341,7.998779,-0.022738,0.028891,0.048894,0.000244,0.001160,0.004693,0.676608,-0.786626,-1.458240,0.057258,0.006985,0.079987,1.000000,0.000001,0.000006,0.000023,-1.000000,-0.000005,-0.000482,0.000283,0.000573,0.055257,-0.032386,0.999999,-0.000565,-0.000964,0.000565,1.000000,0.000010,0.000964,-0.000011,1.000000
08703,5.730179,0.671829,7.951261,0.009409,0.006685,0.011198,0.001184,0.003276,0.006064,0.671805,-0.783646,-1.458667,0.057303,0.006720,0.079512,1.000000,0.000006,0.000016,0.000030,-1.000000,0.000009,-0.000471,0.000266,-0.001043,0.053932,-0.030433,0.999999,-0.000531,-0.000941,0.000531,1.000000,-0.000018,0.000941,0.000018,1.000000
08704,5.742469,0.663167,7.932267,0.030627,-0.000126,0.002386,-0.001550,0.003875,0.003585,0.680509,-0.776017,-1.474554,0.057426,0.006633,0.079322,1.000000,-0.000008,0.000019,0.000018,-1.000000,0.000024,-0.000462,0.000250,-0.002717,0.052906,-0.028602,0.999999,-0.000499,-0.000923,0.000499,1.000000,-0.000047,0.000923,0.000047,1.000000
08705,5.717533,0.674270,7.911219,0.021698,0.012957,-0.028436,0.001893,-0.000038,0.005402,0.682402,-0.782244,-1.460867,0.057175,0.006743,0.079112,1.000000,0.000009,-0.000000,0.000027,-1.000000,0.000032,-0.000434,0.000234,-0.003690,0.049720,-0.026847,1.000000,-0.000469,-0.000868,0.000469,1.000000,-0.000064,0.000868,0.000064,1.000000
08706,5.696558,0.670013,7.961698,-0.024700,0.004728,-0.000058,0.001315,0.006030,0.003804,0.677689,-0.784578,-1.455141,0.056968,0.006701,0.079615,1.000000,0.000007,0.000030,0.000019,-1.000000,0.000042,-0.000437,0.000236,-0.004796,0.050040,-0.027091,1.000000,-0.000473,-0.000873,0.000473,1.000000,-0.000084,0.000873,0.000083,1.000000
08707,5.741754,0.662556,7.932836,0.029127,-0.000059,0.002391,-0.000465,0.004475,0.005355,0.682252,-0.772654,-1.461495,0.057419,0.006627,0.079327,1.000000,-0.000002,0.000022,0.000027,-1.000000,0.000061,-0.000431,0.000227,-0.006978,0.049433,-0.025971,1.000000,-0.000453,-0.000863,0.000453,1.000000,-0.000122,0.000863,0.000121,1.000000
08708,5.749381,0.680211,7.961530,0.017747,0.015404,0.031270,0.001459,0.004513,0.004204,0.675755,-0.782469,-1.458726,0.057495,0.006803,0.079614,1.000000,0.000007,0.000023,0.000021,-1.000000,0.000068,-0.000428,0.000224,-0.007819,0.049059,-0.025684,1.000000,-0.000448,-0.000856,0.000448,1.000000,-0.000136,0.000856,0.000136,1.000000
08709,5.732873,0.649763,7.964448,0.004002,-0.015079,0.021956,0.001880,0.004232,0.002743,0.680196,-0.774157,-1.455284,0.057330,0.006498,0.079643,1.000000,0.000009,0.000021,0.000014,-1.000000,0.000070,-0.000423,0.000218,-0.008033,0.048438,-0.025001,1.000000,-0.000436,-0.000845,0.000436,1.000000,-0.000140,0.000845,0.000140,1.000000
08710,5.732558,0.649646,7.964684,0.003516,-0.015083,0.021956,-0.000045,0.004194,0.003894,0.690818,-0.782061,-1.457518,0.057327,0.006498,0.079646,1.000000,-0.000000,0.000021,0.000019,-1.000000,0.000082,-0.000417,0.000217,-0.009444,0.047819,-0.024906,1.000000,-0.000435,-0.000835,0.000435,1.000000,-0.000165,0.000835,0.000164,1.000000
08711,5.732251,0.649588,7.964910,0.003017,-0.015073,0.021957,0.002300,0.003952,0.001282,0.681426,-0.781962,-1.454903,0.057324,0.006495,0.079648,1.000000,0.000012,0.000020,0.000006,-1.000000,0.000078,-0.000411,0.000216,-0.008968,0.047108,-0.024771,1.000000,-0.000432,-0.000822,0.000432,1.000000,-0.000157,0.000822,0.000156,1.000000
08712,5.715157,0.678824,7.972358,-0.016716,0.013419,0.020006,0.000520,0.002397,0.002832,0.683511,-0.775858,-1.460318,0.057152,0.006789,0.079723,1.000000,0.000003,0.000012,0.000014,-1.000000,0.000082,-0.000401,0.000230,-0.009440,0.046001,-0.026312,1.000000,-0.000459,-0.000803,0.000459,1.000000,-0.000165,0.000803,0.000164,1.000000
08713,5.727482,0.670450,7.953321,0.004532,0.006671,0.011202,0.001216,0.003353,-0.000489,0.679230,-0.776222,-1.465239,0.057276,0.006704,0.079532,1.000000,0.000006,0.000017,-0.000002,-1.000000,0.000077,-0.000393,0.000239,-0.008863,0.045032,-0.027384,1.000000,-0.000478,-0.000786,0.000478,1.000000,-0.000155,0.000786,0.000154,1.000000
08714,5.722915,0.691221,7.941594,0.006465,0.028502,0.000447,-0.002634,0.003276,0.001813,0.684069,-0.782872,-1.464862,0.057230,0.006914,0.079415,1.000000,-0.000013,0.000016,0.000009,-1.000000,0.000096,-0.000384,0.000265,-0.011060,0.043988,-0.030393,1.000000,-0.000530,-0.000768,0.000530,1.000000,-0.000193,0.000768,0.000193,1.000000
08715,5.731204,0.649511,7.965670,0.001129,-0.015055,0.021957,0.002997,0.004908,-0.002040,0.682904,-0.771073,-1.459054,0.057314,0.006493,0.079655,1.000000,0.000015,0.000025,-0.000010,-1.000000,0.000080,-0.000384,0.000275,-0.009182,0.043980,-0.031529,1.000000,-0.000550,-0.000768,0.000550,1.000000,-0.000160,0.000768,0.000160,1.000000
08716,5.739046,0.662245,7.934821,0.024833,-0.000003,0.002402,0.001072,0.004870,-0.000888,0.677808,-0.782590,-1.459074,0.057392,0.006622,0.079347,1.000000,0.000005,0.000024,-0.000004,-1.000000,0.000076,-0.000385,0.000304,-0.008698,0.044111,-0.034792,1.000000,-0.000607,-0.000770,0.000607,1.000000,-0.000152,0.000770,0.000151,1.000000
08717,5.726098,0.670699,7.954296,0.002589,0.006769,0.011202,0.000651,0.005150,0.000572,0.677333,-0.783542,-1.463434,0.057263,0.006707,0.079542,1.000000,0.000003,0.000026,0.000003,-1.000000,0.000077,-0.000385,0.000310,-0.008788,0.044118,-0.035492,1.000000,-0.000619,-0.000770,0.000619,1.000000,-0.000153,0.000770,0.000153,1.000000
08718,5.721320,0.691698,7.942702,0.004504,0.028526,0.000448,0.002432,0.006705,-0.000978,0.685407,-0.786462,-1.457936,0.057216,0.006916,0.079425,1.000000,0.000012,0.000034,-0.000005,-1.000000,0.000064,-0.000393,0.000312,-0.007362,0.045025,-0.035747,0.999999,-0.000624,-0.000786,0.000624,1.000000,-0.000128,0.000786,0.000128,1.000000
08719,5.729469,0.650052,7.966873,-0.000842,-0.015030,0.021957,-0.000853,0.004832,0.000262,0.669689,-0.782713,-1.459488,0.057297,0.006501,0.079667,1.000000,-0.000004,0.000024,0.000001,-1.000000,0.000070,-0.000392,0.000324,-0.008040,0.044865,-0.037105,0.999999,-0.000648,-0.000783,0.000647,1.000000,-0.000140,0.000783,0.000140,1.000000
08720,5.720190,0.691816,7.943505,0.003511,0.028484,0.000448,0.002663,0.012137,0.001055,0.683011,-0.776203,-1.459204,0.057207,0.006917,0.079432,1.000000,0.000013,0.000061,0.000005,-1.000000,0.000063,-0.000426,0.000313,-0.007184,0.048847,-0.035865,0.999999,-0.000626,-0.000853,0.000626,1.000000,-0.000125,0.000853,0.000125,1.000000
08721,5.723800,0.671087,7.955917,0.000587,0.006711,0.011203,0.002156,0.005469,0.000882,0.684764,-0.777887,-1.451181,0.057240,0.006710,0.079558,1.000000,0.000011,0.000027,0.000004,-1.000000,0.000058,-0.000428,0.000313,-0.006684,0.049021,-0.035905,0.999999,-0.000627,-0.000856,0.000627,1.000000,-0.000117,0.000856,0.000116,1.000000
08722,5.711023,0.674308,7.915917,0.013505,0.013020,-0.028421,0.002709,0.007942,-0.002839,0.674080,-0.781434,-1.464346,0.057113,0.006741,0.079157,1.000000,0.000014,0.000040,-0.000014,-1.000000,0.000041,-0.000447,0.000343,-0.004672,0.051167,-0.039278,0.999999,-0.000686,-0.000893,0.000685,1.000000,-0.000082,0.000893,0.000081,1.000000
08723,5.702196,0.661866,7.947438,-0.011168,-0.001988,-0.008875,-0.002922,0.006311,0.001013,0.674833,-0.772170,-1.459534,0.057024,0.006620,0.079472,1.000000,-0.000015,0.000032,0.000005,-1.000000,0.000057,-0.000452,0.000357,-0.006605,0.051816,-0.040922,0.999999,-0.000714,-0.000904,0.000714,1.000000,-0.000115,0.000904,0.000115,1.000000
08724,5.722304,0.671298,7.956976,-0.000891,0.006757,0.011203,0.001216,0.003353,-0.000489,0.678126,-0.787963,-1.459097,0.057224,0.006712,0.079569,1.000000,0.000006,0.000017,-0.000002,-1.000000,0.000054,-0.000441,0.000363,-0.006196,0.050557,-0.041572,0.999999,-0.000726,-0.000882,0.000725,1.000000,-0.000108,0.000882,0.000108,1.000000
08725,5.722016,0.671415,7.957173,-0.001389,0.006767,0.011203,0.002300,0.003952,0.001282,0.683819,-0.780965,-1.467861,0.057222,0.006714,0.079571,1.000000,0.000012,0.000020,0.000006,-1.000000,0.000050,-0.000435,0.000362,-0.005721,0.049846,-0.041438,0.999999,-0.000723,-0.000870,0.000723,1.000000,-0.000100,0.000870,0.000099,1.000000
08726,5.696983,0.683035,7.936140,-0.010271,0.019819,-0.019630,0.004790,0.002193,-0.000930,0.681725,-0.777339,-1.457831,0.056971,0.006828,0.079361,1.000000,0.000024,0.000011,-0.000005,-1.000000,0.000027,-0.000421,0.000364,-0.003086,0.048275,-0.041674,0.999999,-0.000727,-0.000843,0.000727,1.000000,-0.000054,0.000843,0.000053,1.000000
08727,5.734096,0.663637,7.938283,0.019370,-0.000016,0.002415,0.002721,0.003672,-0.000179,0.678229,-0.778656,-1.462589,0.057342,0.006635,0.079382,1.000000,0.000014,0.000018,-0.000001,-1.000000,0.000017,-0.000414,0.000367,-0.001920,0.047474,-0.042087,0.999999,-0.000735,-0.000829,0.000735,1.000000,-0.000034,0.000829,0.000033,1.000000
08728,5.733820,0.663703,7.938476,0.018880,-0.000001,0.002416,-0.000709,0.003315,0.000661,0.679060,-0.777642,-1.462491,0.057339,0.006638,0.079384,1.000000,-0.000004,0.000017,0.000003,-1.000000,0.000023,-0.000406,0.000384,-0.002652,0.046472,-0.044044,0.999999,-0.000769,-0.000811,0.000769,1.000000,-0.000046,0.000811,0.000046,1.000000
08729,5.713032,0.654188,7.929434,0.007562,-0.008695,-0.017664,0.003384,0.004552,0.003053,0.675204,-0.776367,-1.458795,0.057132,0.006541,0.079293,1.000000,0.000017,0.000023,0.000015,-1.000000,0.000020,-0.000402,0.000373,-0.002277,0.046019,-0.042703,0.999999,-0.000745,-0.000803,0.000745,1.000000,-0.000040,0.000803,0.000039,1.000000
08730,5.728838,0.684673,7.927032,0.020302,0.021818,-0.008336,0.002156,0.005470,0.000882,0.682822,-0.773649,-1.457266,0.057291,0.006846,0.079269,1.000000,0.000011,0.000027,0.000004,-1.000000,0.000016,-0.000402,0.000375,-0.001877,0.046083,-0.042959,0.999999,-0.000750,-0.000804,0.000750,1.000000,-0.000033,0.000804,0.000032,1.000000
08731,5.712231,0.654365,7.929996,0.006549,-0.008657,-0.017663,0.000652,0.005151,0.000572,0.676220,-0.778192,-1.456443,0.057124,0.006544,0.079299,1.000000,0.000003,0.000026,0.000003,-1.000000,0.000017,-0.000402,0.000381,-0.001966,0.046090,-0.043658,0.999999,-0.000762,-0.000804,0.000762,1.000000,-0.000034,0.000804,0.000034,1.000000
08732,5.711820,0.654325,7.930295,0.006068,-0.008642,-0.017663,0.000231,0.005432,0.002033,0.676033,-0.775615,-1.462043,0.057120,0.006544,0.079301,1.000000,0.000001,0.000027,0.000010,-1.000000,0.000024,-0.000404,0.000390,-0.002777,0.046282,-0.044693,0.999999,-0.000780,-0.000808,0.000780,1.000000,-0.000048,0.000808,0.000048,1.000000
08733,5.719269,0.672189,7.959082,-0.005363,0.006842,0.011201,0.000508,0.006668,0.000172,0.676781,-0.772899,-1.461829,0.057195,0.006722,0.079589,1.000000,0.000003,0.000033,0.000001,-1.000000,0.000025,-0.000412,0.000398,-0.002842,0.047174,-0.045568,0.999999,-0.000795,-0.000823,0.000795,1.000000,-0.000050,0.000823,0.000049,1.000000
08734,5.723015,0.651349,7.971405,-0.008335,-0.014884,0.021954,0.001591,0.007268,0.001943,0.674615,-0.777278,-1.463836,0.057233,0.006513,0.079712,1.000000,0.000008,0.000036,0.000010,-1.000000,0.000028,-0.000420,0.000398,-0.003269,0.048137,-0.045593,0.999999,-0.000796,-0.000840,0.000796,1.000000,-0.000057,0.000840,0.000056,1.000000
08735,5.718151,0.672337,7.959873,-0.006392,0.006908,0.011200,0.003517,0.007306,0.000793,0.677347,-0.777501,-1.462198,0.057184,0.006722,0.079597,1.000000,0.000018,0.000037,0.000004,-1.000000,0.000019,-0.000431,0.000394,-0.002157,0.049364,-0.045149,0.999999,-0.000788,-0.000862,0.000788,1.000000,-0.000038,0.000862,0.000037,1.000000
08736,5.713508,0.693154,7.948196,-0.004483,0.028724,0.000447,-0.002491,0.001760,0.002211,0.681135,-0.778272,-1.455335,0.057136,0.006933,0.079481,1.000000,-0.000012,0.000009,0.000011,-1.000000,0.000037,-0.000411,0.000402,-0.004292,0.047139,-0.046116,0.999999,-0.000805,-0.000823,0.000805,1.000000,-0.000075,0.000823,0.000074,1.000000
08737,5.734303,0.642942,7.953150,0.011882,-0.021603,0.013176,0.003096,0.007587,0.002253,0.674697,-0.781943,-1.456415,0.057346,0.006429,0.079529,1.000000,0.000015,0.000038,0.000011,-1.000000,0.000034,-0.000423,0.000394,-0.003870,0.048457,-0.045124,0.999999,-0.000788,-0.000846,0.000788,1.000000,-0.000068,0.000846,0.000067,1.000000
08738,5.709143,0.654398,7.932217,0.003026,-0.008548,-0.017661,0.002444,0.002436,0.001682,0.687851,-0.779650,-1.455480,0.057092,0.006543,0.079322,1.000000,0.000012,0.000012,0.000008,-1.000000,0.000028,-0.000409,0.000390,-0.003212,0.046919,-0.044706,0.999999,-0.000780,-0.000819,0.000780,1.000000,-0.000056,0.000819,0.000055,1.000000
08739,5.737236,0.681920,7.970141,0.002400,0.015639,0.031285,0.002157,0.005470,0.000882,0.681546,-0.777012,-1.466372,0.057375,0.006819,0.079700,1.000000,0.000011,0.000027,0.000004,-1.000000,0.000024,-0.000411,0.000390,-0.002713,0.047094,-0.044746,0.999999,-0.000781,-0.000822,0.000781,1.000000,-0.000047,0.000822,0.000047,1.000000
08740,5.712697,0.633766,7.944661,-0.000376,-0.030310,-0.006909,0.002157,0.005470,0.000882,0.687479,-0.780256,-1.461239,0.057129,0.006337,0.079445,1.000000,0.000011,0.000027,0.000004,-1.000000,0.000019,-0.000415,0.000406,-0.002205,0.047508,-0.046519,0.999999,-0.000812,-0.000829,0.000812,1.000000,-0.000038,0.000829,0.000038,1.000000
08741,5.711611,0.693569,7.949523,-0.006917,0.028740,0.000446,0.002578,0.005189,-0.000579,0.678945,-0.777624,-1.455634,0.057118,0.006934,0.079494,1.000000,0.000013,0.000026,-0.000003,-1.000000,0.000009,-0.000415,0.000411,-0.001016,0.047593,-0.047107,0.999999,-0.000822,-0.000831,0.000822,1.000000,-0.000018,0.000831,0.000017,1.000000
08742,5.752843,0.653220,7.963760,0.020285,-0.012906,0.033266,0.001495,0.004589,-0.002350,0.675276,-0.780886,-1.464336,0.057530,0.006531,0.079636,1.000000,0.000007,0.000023,-0.000012,-1.000000,-0.000003,-0.000416,0.000438,0.000371,0.047641,-0.050176,0.999999,-0.000876,-0.000831,0.000876,1.000000,0.000006,0.000831,-0.000007,1.000000
08743,5.715217,0.673129,7.961912,-0.010325,0.006964,0.011197,0.002444,0.002436,0.001682,0.675248,-0.782286,-1.461786,0.057153,0.006731,0.079619,1.000000,0.000012,0.000012,0.000008,-1.000000,-0.000007,-0.000402,0.000435,0.000822,0.046045,-0.049867,0.999999,-0.000870,-0.000804,0.000870,1.000000,0.000014,0.000804,-0.000015,1.000000
08744,5.706943,0.655342,7.933722,0.000082,-0.008513,-0.017661,0.002013,0.006987,0.000482,0.679973,-0.776873,-1.458740,0.057072,0.006553,0.079335,1.000000,0.000010,0.000035,0.000002,-1.000000,-0.000012,-0.000409,0.000430,0.001408,0.046868,-0.049223,0.999999,-0.000859,-0.000818,0.000859,1.000000,0.000025,0.000818,-0.000025,1.000000
08745,5.735147,0.677454,7.912286,0.034600,0.015199,-0.017091,0.003096,0.007587,0.002253,0.677995,-0.780866,-1.462683,0.057354,0.006774,0.079121,1.000000,0.000015,0.000038,0.000011,-1.000000,-0.000016,-0.000421,0.000421,0.001830,0.048187,-0.048232,0.999999,-0.000842,-0.000841,0.000842,1.000000,0.000032,0.000841,-0.000033,1.000000
08746,5.713849,0.673491,7.962864,-0.011864,0.006984,0.011195,0.001217,0.003353,-0.000489,0.674985,-0.780136,-1.464769,0.057140,0.006734,0.079628,1.000000,0.000006,0.000017,-0.000002,-1.000000,-0.000021,-0.000412,0.000433,0.002418,0.047193,-0.049613,0.999999,-0.000866,-0.000824,0.000866,1.000000,0.000042,0.000824,-0.000043,1.000000
08747,5.721672,0.686265,7.932069,0.011848,0.021996,-0.008322,0.004217,0.008261,-0.002529,0.683571,-0.780134,-1.465842,0.057220,0.006860,0.079318,1.000000,0.000021,0.000041,-0.000013,-1.000000,-0.000043,-0.000429,0.000440,0.004934,0.049125,-0.050439,0.999999,-0.000880,-0.000857,0.000880,1.000000,0.000086,0.000857,-0.000087,1.000000
08748,5.725466,0.665699,7.944337,0.008875,0.000234,0.002430,0.002300,0.003953,0.001282,0.679388,-0.777379,-1.462530,0.057256,0.006656,0.079442,1.000000,0.000012,0.000020,0.000006,-1.000000,-0.000047,-0.000421,0.000441,0.005359,0.048301,-0.050576,0.999999,-0.000883,-0.000843,0.000883,1.000000,0.000094,0.000843,-0.000094,1.000000
08749,5.708112,0.695075,7.951904,-0.010919,0.028806,0.000442,0.001870,0.008505,0.000081,0.679176,-0.774218,-1.455118,0.057084,0.006950,0.079517,1.000000,0.000009,0.000043,0.000000,-1.000000,-0.000052,-0.000438,0.000445,0.005907,0.050247,-0.050966,0.999999,-0.000890,-0.000877,0.000890,1.000000,0.000103,0.000877,-0.000104,1.000000
08750,5.724442,0.665966,7.945053,0.007882,0.000268,0.002431,0.001074,0.004870,-0.000890,0.676448,-0.782792,-1.464294,0.057246,0.006659,0.079449,1.000000,0.000005,0.000024,-0.000004,-1.000000,-0.000056,-0.000438,0.000462,0.006430,0.050179,-0.052896,0.999999,-0.000923,-0.000876,0.000923,1.000000,0.000112,0.000876,-0.000113,1.000000
08751,5.719800,0.686998,7.933355,0.009845,0.022059,-0.008320,0.003805,0.004272,0.001593,0.686657,-0.783378,-1.466373,0.057200,0.006869,0.079332,1.000000,0.000019,0.000021,0.000008,-1.000000,-0.000066,-0.000433,0.000455,0.007494,0.049636,-0.052103,0.999999,-0.000909,-0.000866,0.000909,1.000000,0.000131,0.000866,-0.000132,1.000000
08752,5.731534,0.684219,7.974046,-0.004068,0.015753,0.031284,0.002013,0.006988,0.000481,0.677532,-0.780340,-1.459945,0.057318,0.006842,0.079739,1.000000,0.000010,0.000035,0.000002,-1.000000,-0.000071,-0.000442,0.000461,0.008108,0.050690,-0.052771,0.999999,-0.000921,-0.000885,0.000921,1.000000,0.000142,0.000885,-0.000142,1.000000
08753,5.710564,0.674830,7.965107,-0.015369,0.007067,0.011190,0.002157,0.005471,0.000882,0.674101,-0.776063,-1.456841,0.057108,0.006748,0.079650,1.000000,0.000011,0.000027,0.000004,-1.000000,-0.000075,-0.000444,0.000461,0.008608,0.050865,-0.052812,0.999999,-0.000922,-0.000888,0.000922,1.000000,0.000150,0.000888,-0.000151,1.000000
08754,5.722788,0.666444,7.946204,0.005869,0.000290,0.002432,0.000374,0.003916,0.002431,0.674693,-0.774867,-1.455991,0.057229,0.006665,0.079461,1.000000,0.000002,0.000020,0.000012,-1.000000,-0.000069,-0.000436,0.000457,0.007831,0.049957,-0.052378,0.999999,-0.000914,-0.000872,0.000914,1.000000,0.000137,0.000872,-0.000137,1.000000
08755,5.735081,0.658110,7.927249,0.027127,-0.006484,-0.006324,0.002722,0.003672,-0.000178,0.673960,-0.783565,-1.458318,0.057352,0.006580,0.079272,1.000000,0.000014,0.000018,-0.000001,-1.000000,-0.000079,-0.000429,0.000461,0.008996,0.049156,-0.052791,0.999999,-0.000921,-0.000858,0.000922,1.000000,0.000157,0.000858,-0.000158,1.000000
08756,5.722127,0.666618,7.946665,0.004847,0.000294,0.002433,0.001735,0.005752,0.002342,0.669751,-0.782186,-1.459992,0.057223,0.006666,0.079465,1.000000,0.000009,0.000029,0.000012,-1.000000,-0.000078,-0.000430,0.000449,0.008903,0.049271,-0.051451,0.999999,-0.000898,-0.000860,0.000898,1.000000,0.000155,0.000860,-0.000156,1.000000
08757,5.717495,0.687540,7.934969,0.006816,0.022085,-0.008318,0.001218,0.003353,-0.000490,0.675336,-0.787862,-1.458979,0.057176,0.006875,0.079349,1.000000,0.000006,0.000017,-0.000002,-1.000000,-0.000083,-0.000421,0.000458,0.009481,0.048303,-0.052523,0.999999,-0.000917,-0.000843,0.000917,1.000000,0.000165,0.000843,-0.000166,1.000000
08758,5.729364,0.684651,7.975568,-0.007153,0.015748,0.031282,0.001879,0.004235,0.002742,0.673603,-0.782408,-1.461170,0.057295,0.006847,0.079755,1.000000,0.000009,0.000021,0.000014,-1.000000,-0.000084,-0.000414,0.000437,0.009550,0.047432,-0.050032,0.999999,-0.000873,-0.000828,0.000873,1.000000,0.000167,0.000828,-0.000167,1.000000
08759,5.700572,0.657346,7.938135,-0.007485,-0.008419,-0.017664,0.002436,0.006707,-0.000979,0.677466,-0.778332,-1.460690,0.057008,0.006572,0.079380,1.000000,0.000012,0.000034,-0.000005,-1.000000,-0.000094,-0.000422,0.000443,0.010765,0.048402,-0.050794,0.999999,-0.000887,-0.000845,0.000887,1.000000,0.000188,0.000845,-0.000189,1.000000
08760,5.728956,0.679620,7.916585,0.027012,0.015273,-0.017067,0.003144,0.003391,-0.001639,0.677428,-0.783767,-1.456452,0.057291,0.006794,0.079165,1.000000,0.000016,0.000017,-0.000008,-1.000000,-0.000111,-0.000413,0.000447,0.012671,0.047342,-0.051213,0.999999,-0.000894,-0.000826,0.000894,1.000000,0.000221,0.000826,-0.000222,1.000000
08761,5.753486,0.668618,7.937951,0.034839,0.002198,0.013782,0.003288,0.001874,-0.001238,0.676582,-0.780522,-1.461551,0.057536,0.006685,0.079379,1.000000,0.000016,0.000009,-0.000006,-1.000000,-0.000127,-0.000398,0.000454,0.014503,0.045565,-0.051999,0.999999,-0.000908,-0.000795,0.000908,1.000000,0.000253,0.000795,-0.000254,1.000000
08762,5.732786,0.659212,7.928817,0.023538,-0.006517,-0.006315,0.000374,0.003916,0.002431,0.679546,-0.781738,-1.463167,0.057329,0.006593,0.079287,1.000000,0.000002,0.000020,0.000012,-1.000000,-0.000121,-0.000390,0.000450,0.013876,0.044723,-0.051511,0.999999,-0.000899,-0.000781,0.000899,1.000000,0.000242,0.000780,-0.000243,1.000000
08763,5.732376,0.659340,7.929103,0.023040,-0.006507,-0.006314,0.002858,0.006426,-0.002440,0.681002,-0.770099,-1.463939,0.057326,0.006592,0.079289,1.000000,0.000014,0.000032,-0.000012,-1.000000,-0.000138,-0.000398,0.000461,0.015781,0.045603,-0.052820,0.999999,-0.000922,-0.000796,0.000922,1.000000,0.000275,0.000796,-0.000276,1.000000
08764,5.748106,0.690015,7.926756,0.035802,0.024010,0.003037,0.002579,0.005190,-0.000579,0.675328,-0.782793,-1.461479,0.057483,0.006899,0.079266,1.000000,0.000013,0.000026,-0.000003,-1.000000,-0.000147,-0.000398,0.000475,0.016776,0.045649,-0.054469,0.999999,-0.000951,-0.000797,0.000951,1.000000,0.000293,0.000796,-0.000294,1.000000
08765,5.702026,0.697529,7.956055,-0.019006,0.028904,0.000429,0.002579,0.005190,-0.000579,0.674999,-0.778516,-1.459766,0.057022,0.006974,0.079559,1.000000,0.000013,0.000026,-0.000003,-1.000000,-0.000157,-0.000399,0.000481,0.017966,0.045733,-0.055056,0.999999,-0.000961,-0.000798,0.000961,0.999999,0.000314,0.000798,-0.000314,1.000000
08766,5.734549,0.698841,7.946568,0.013017,0.030809,0.011785,0.001871,0.008506,0.000080,0.680050,-0.776183,-1.458010,0.057349,0.006988,0.079463,1.000000,0.000009,0.000043,0.000000,-1.000000,-0.000162,-0.000414,0.000478,0.018579,0.047506,-0.054824,0.999999,-0.000957,-0.000829,0.000957,0.999999,0.000324,0.000829,-0.000325,1.000000
08767,5.717729,0.668716,7.949654,-0.000747,0.000345,0.002434,0.003941,0.007026,-0.000668,0.675776,-0.783481,-1.465451,0.057180,0.006685,0.079495,1.000000,0.000020,0.000035,-0.000003,-1.000000,-0.000178,-0.000424,0.000479,0.020382,0.048643,-0.054926,0.999999,-0.000959,-0.000849,0.000959,0.999999,0.000356,0.000849,-0.000357,1.000000
08768,5.733396,0.699229,7.947366,0.012007,0.030828,0.011786,-0.000995,0.006351,-0.000143,0.683384,-0.775716,-1.458886,0.057336,0.006993,0.079472,1.000000,-0.000005,0.000032,-0.000001,-1.000000,-0.000172,-0.000430,0.000493,0.019738,0.049282,-0.056507,0.999999,-0.000986,-0.000860,0.000987,0.999999,0.000344,0.000860,-0.000345,1.000000
08769,5.732872,0.699151,7.947751,0.011510,0.030838,0.011787,0.000087,0.006951,0.001629,0.677197,-0.781414,-1.462408,0.057331,0.006992,0.079476,1.000000,0.000000,0.000035,0.000008,-1.000000,-0.000166,-0.000439,0.000496,0.018984,0.050267,-0.056834,0.999999,-0.000992,-0.000877,0.000992,0.999999,0.000331,0.000877,-0.000332,1.000000
08770,5.736753,0.678067,7.960004,0.008536,0.009070,0.022536,0.000754,0.003563,0.007523,0.676505,-0.776670,-1.460607,0.057369,0.006783,0.079599,1.000000,0.000004,0.000018,0.000038,-1.000000,-0.000146,-0.000428,0.000480,0.016665,0.049062,-0.054991,0.999999,-0.000960,-0.000856,0.000960,0.999999,0.000291,0.000856,-0.000292,1.000000
08771,5.711624,0.689118,7.939059,-0.000266,0.022168,-0.008316,-0.000335,0.007233,0.003089,0.681007,-0.778393,-1.457249,0.057119,0.006892,0.079389,1.000000,-0.000002,0.000036,0.000015,-1.000000,-0.000133,-0.000437,0.000478,0.015221,0.050137,-0.054772,0.999999,-0.000956,-0.000875,0.000956,1.000000,0.000266,0.000875,-0.000266,1.000000
08772,5.715452,0.667990,7.951352,-0.003246,0.000401,0.002433,-0.000471,0.004480,0.005351,0.682174,-0.776426,-1.460130,0.057156,0.006682,0.079512,1.000000,-0.000002,0.000022,0.000027,-1.000000,-0.000114,-0.000432,0.000472,0.013026,0.049530,-0.054120,0.999999,-0.000945,-0.000864,0.000945,1.000000,0.000227,0.000864,-0.000228,1.000000
08773,5.735607,0.677051,7.960917,0.007040,0.009104,0.022538,-0.002398,0.004443,0.006499,0.668903,-0.779084,-1.462996,0.057358,0.006773,0.079608,1.000000,-0.000012,0.000022,0.000032,-1.000000,-0.000084,-0.000426,0.000464,0.009565,0.048850,-0.053118,0.999999,-0.000927,-0.000853,0.000927,1.000000,0.000167,0.000852,-0.000168,1.000000
08774,5.714815,0.667026,7.951891,-0.004274,0.000434,0.002433,-0.000893,0.004762,0.006811,0.685225,-0.772797,-1.457263,0.057150,0.006673,0.079518,1.000000,-0.000004,0.000024,0.000034,-1.000000,-0.000058,-0.000420,0.000447,0.006622,0.048149,-0.051260,0.999999,-0.000895,-0.000840,0.000895,1.000000,0.000116,0.000840,-0.000116,1.000000
08775,5.747607,0.667720,7.942284,0.027773,0.002342,0.013804,0.000754,0.003563,0.007523,0.673909,-0.781516,-1.463271,0.057477,0.006679,0.079422,1.000000,0.000004,0.000018,0.000038,-1.000000,-0.000038,-0.000409,0.000426,0.004312,0.046917,-0.048764,0.999999,-0.000851,-0.000819,0.000851,1.000000,0.000075,0.000819,-0.000076,1.000000
08776,5.726422,0.663553,7.992711,-0.018736,-0.005830,0.042020,0.000137,0.002753,-0.002262,0.678909,-0.782916,-1.453491,0.057265,0.006635,0.079926,1.000000,0.000001,0.000014,-0.000011,-1.000000,-0.000043,-0.000399,0.000451,0.004952,0.045704,-0.051718,0.999999,-0.000903,-0.000798,0.000903,1.000000,0.000086,0.000798,-0.000087,1.000000
08777,5.722259,0.678977,7.921482,0.018486,0.015456,-0.017048,0.000089,0.006952,0.001629,0.680511,-0.782874,-1.456559,0.057225,0.006790,0.079213,1.000000,0.000000,0.000035,0.000008,-1.000000,-0.000037,-0.000407,0.000454,0.004199,0.046688,-0.052045,0.999999,-0.000908,-0.000815,0.000908,1.000000,0.000073,0.000815,-0.000074,1.000000
08778,5.717724,0.645671,7.964857,-0.008727,-0.021352,0.013180,0.003383,0.004554,0.003054,0.671944,-0.786971,-1.460116,0.057179,0.006456,0.079647,1.000000,0.000017,0.000023,0.000015,-1.000000,-0.000043,-0.000405,0.000442,0.004904,0.046386,-0.050616,0.999999,-0.000883,-0.000810,0.000883,1.000000,0.000086,0.000810,-0.000086,1.000000
08779,5.721559,0.679076,7.921979,0.017518,0.015420,-0.017046,0.002444,0.002437,0.001683,0.679330,-0.777501,-1.460774,0.057216,0.006790,0.079219,1.000000,0.000012,0.000012,0.000008,-1.000000,-0.000047,-0.000391,0.000439,0.005356,0.044791,-0.050307,0.999999,-0.000878,-0.000782,0.000878,1.000000,0.000093,0.000782,-0.000094,1.000000
08780,5.712912,0.666682,7.953287,-0.007256,0.000422,0.002431,0.000654,0.005153,0.000569,0.675120,-0.771844,-1.464120,0.057131,0.006667,0.079531,1.000000,0.000003,0.000026,0.000003,-1.000000,-0.000047,-0.000390,0.000439,0.005422,0.044664,-0.050262,0.999999,-0.000877,-0.000780,0.000877,1.000000,0.000095,0.000779,-0.000095,1.000000
08781,5.725158,0.658284,7.934404,0.014010,-0.006365,-0.006297,0.001879,0.004236,0.002742,0.675418,-0.779145,-1.457419,0.057253,0.006583,0.079343,1.000000,0.000009,0.000021,0.000014,-1.000000,-0.000046,-0.000384,0.000433,0.005208,0.044045,-0.049581,0.999999,-0.000865,-0.000769,0.000865,1.000000,0.000091,0.000769,-0.000092,1.000000
08782,5.712182,0.666804,7.953801,-0.008283,0.000468,0.002430,0.002581,0.005190,-0.000579,0.680209,-0.775859,-1.459069,0.057124,0.006667,0.079537,1.000000,0.000013,0.000026,-0.000003,-1.000000,-0.000055,-0.000384,0.000439,0.006259,0.043951,-0.050274,0.999999,-0.000877,-0.000767,0.000878,1.000000,0.000109,0.000767,-0.000110,1.000000
08783,5.749034,0.647298,7.956251,0.021265,-0.019409,0.024562,0.002439,0.006707,-0.000980,0.678011,-0.783644,-1.461449,0.057493,0.006472,0.079561,1.000000,0.000012,0.000034,-0.000005,-1.000000,-0.000065,-0.000392,0.000445,0.007475,0.044921,-0.051035,0.999999,-0.000891,-0.000784,0.000891,1.000000,0.000130,0.000784,-0.000131,1.000000
08784,5.723879,0.658705,7.935292,0.012488,-0.006321,-0.006294,0.001456,0.004518,0.004202,0.679720,-0.772169,-1.459643,0.057240,0.006588,0.079352,1.000000,0.000007,0.000023,0.000021,-1.000000,-0.000058,-0.000387,0.000437,0.006635,0.044400,-0.050068,0.999999,-0.000874,-0.000775,0.000874,1.000000,0.000116,0.000775,-0.000116,1.000000
08785,5.706571,0.688080,7.942782,-0.007278,0.022267,-0.008318,0.003944,0.007026,-0.000668,0.672031,-0.776367,-1.461074,0.057069,0.006879,0.079426,1.000000,0.000020,0.000035,-0.000003,-1.000000,-0.000074,-0.000397,0.000438,0.008439,0.045537,-0.050169,0.999999,-0.000876,-0.000795,0.000876,1.000000,0.000147,0.000795,-0.000148,1.000000
08786,5.730848,0.677076,7.964341,0.000475,0.009219,0.022540,0.004228,0.003991,0.000134,0.669051,-0.781576,-1.469481,0.057310,0.006769,0.079642,1.000000,0.000021,0.000020,0.000001,-1.000000,-0.000088,-0.000391,0.000439,0.010014,0.044753,-0.050301,0.999999,-0.000878,-0.000781,0.000878,1.000000,0.000175,0.000781,-0.000175,1.000000
08787,5.738767,0.689803,7.933539,0.024241,0.024207,0.003072,0.003521,0.007308,0.000792,0.685510,-0.781696,-1.463102,0.057391,0.006897,0.079333,1.000000,0.000018,0.000037,0.000004,-1.000000,-0.000097,-0.000401,0.000435,0.011128,0.045981,-0.049856,0.999999,-0.000870,-0.000803,0.000870,1.000000,0.000194,0.000802,-0.000195,1.000000
08788,5.689044,0.658348,7.946318,-0.022098,-0.008135,-0.017685,-0.001131,0.003599,0.002118,0.674649,-0.778150,-1.461790,0.056892,0.006585,0.079462,1.000000,-0.000006,0.000018,0.000011,-1.000000,-0.000085,-0.000391,0.000438,0.009729,0.044841,-0.050208,0.999999,-0.000876,-0.000783,0.000876,1.000000,0.000170,0.000782,-0.000170,1.000000
08789,5.717573,0.680245,7.924756,0.012443,0.015540,-0.017038,0.003383,0.004555,0.003054,0.681626,-0.786361,-1.458530,0.057177,0.006802,0.079246,1.000000,0.000017,0.000023,0.000015,-1.000000,-0.000088,-0.000387,0.000426,0.010102,0.044388,-0.048867,0.999999,-0.000853,-0.000775,0.000853,1.000000,0.000176,0.000775,-0.000177,1.000000
08790,5.717183,0.680294,7.925034,0.011943,0.015522,-0.017038,0.001736,0.005754,0.002341,0.677721,-0.782774,-1.456441,0.057174,0.006803,0.079249,1.000000,0.000009,0.000029,0.000012,-1.000000,-0.000088,-0.000389,0.000420,0.010081,0.044636,-0.048110,0.999999,-0.000840,-0.000779,0.000840,1.000000,0.000176,0.000779,-0.000177,1.000000
08791,5.716797,0.680065,7.925331,0.011447,0.015532,-0.017037,-0.000895,0.004763,0.006809,0.675663,-0.777178,-1.457342,0.057170,0.006803,0.079252,1.000000,-0.000004,0.000024,0.000034,-1.000000,-0.000063,-0.000385,0.000405,0.007208,0.044124,-0.046449,0.999999,-0.000811,-0.000770,0.000811,1.000000,0.000126,0.000770,-0.000126,1.000000
08792,5.732959,0.655989,7.977860,-0.005060,-0.012548,0.033286,-0.000423,0.000282,0.001460,0.673915,-0.777405,-1.444445,0.057330,0.006560,0.079779,1.000000,-0.000002,0.000001,0.000007,-1.000000,-0.000058,-0.000360,0.000411,0.006603,0.041292,-0.047062,0.999999,-0.000821,-0.000721,0.000821,1.000000,0.000115,0.000721,-0.000116,1.000000
08793,5.720701,0.658693,7.937584,0.007945,-0.006250,-0.006290,-0.000472,0.004482,0.005349,0.675524,-0.784657,-1.466356,0.057209,0.006589,0.079375,1.000000,-0.000002,0.000022,0.000027,-1.000000,-0.000039,-0.000355,0.000401,0.004420,0.040688,-0.045948,0.999999,-0.000802,-0.000710,0.000802,1.000000,0.000077,0.000710,-0.000078,1.000000
08794,5.728172,0.676164,7.966343,-0.003563,0.009214,0.022539,-0.002541,0.005962,0.006096,0.681163,-0.781414,-1.459560,0.057284,0.006764,0.079662,1.000000,-0.000013,0.000030,0.000030,-1.000000,-0.000011,-0.000356,0.000387,0.001205,0.040839,-0.044396,0.999999,-0.000775,-0.000713,0.000775,1.000000,0.000021,0.000713,-0.000022,1.000000
08795,5.715693,0.678814,7.926235,0.009448,0.015511,-0.017035,0.002960,0.004837,0.004514,0.681455,-0.782022,-1.461222,0.057159,0.006788,0.079261,1.000000,0.000015,0.000024,0.000023,-1.000000,-0.000008,-0.000353,0.000371,0.000888,0.040478,-0.042507,0.999999,-0.000742,-0.000706,0.000742,1.000000,0.000015,0.000706,-0.000016,1.000000
08796,5.740059,0.667280,7.947778,0.017228,0.002403,0.013829,-0.000472,0.004482,0.005349,0.675168,-0.778456,-1.453305,0.057402,0.006675,0.079476,1.000000,-0.000002,0.000022,0.000027,-1.000000,0.000010,-0.000349,0.000365,-0.001140,0.039988,-0.041789,0.999999,-0.000729,-0.000698,0.000729,1.000000,-0.000020,0.000698,0.000019,1.000000
08797,5.723568,0.636571,7.950640,0.003455,-0.028051,0.004458,-0.000330,0.002964,0.005750,0.676605,-0.776467,-1.459910,0.057237,0.006367,0.079506,1.000000,-0.000002,0.000015,0.000029,-1.000000,0.000029,-0.000336,0.000353,-0.003348,0.038499,-0.040499,1.000000,-0.000707,-0.000672,0.000707,1.000000,-0.000058,0.000672,0.000058,1.000000
08798,5.743842,0.645777,7.960123,0.013713,-0.019364,0.024576,0.000094,0.002682,0.004290,0.673462,-0.771986,-1.466834,0.057439,0.006459,0.079600,1.000000,0.000000,0.000013,0.000021,-1.000000,0.000042,-0.000322,0.000347,-0.004813,0.036877,-0.039772,1.000000,-0.000694,-0.000644,0.000694,1.000000,-0.000084,0.000644,0.000084,1.000000
08799,5.706425,0.665368,7.958053,-0.016807,0.000545,0.002419,-0.000423,0.000282,0.001460,0.678047,-0.775292,-1.458151,0.057064,0.006654,0.079580,1.000000,-0.000002,0.000001,0.000007,-1.000000,0.000048,-0.000297,0.000354,-0.005562,0.034062,-0.040608,1.000000,-0.000709,-0.000594,0.000709,1.000000,-0.000097,0.000595,0.000097,1.000000
08800,5.718905,0.657037,7.939015,0.004435,-0.006211,-0.006287,0.006535,0.003674,0.004081,0.670450,-0.783300,-1.464732,0.057190,0.006569,0.079389,1.000000,0.000033,0.000018,0.000020,-1.000000,0.000037,-0.000287,0.000335,-0.004276,0.032883,-0.038351,1.000000,-0.000669,-0.000574,0.000669,1.000000,-0.000075,0.000574,0.000074,1.000000
08801,5.731189,0.648604,7.920130,0.025707,-0.013009,-0.014992,-0.001695,0.005399,0.003176,0.683586,-0.784393,-1.460841,0.057314,0.006488,0.079200,1.000000,-0.000008,0.000027,0.000016,-1.000000,0.000055,-0.000287,0.000337,-0.006331,0.032907,-0.038618,1.000000,-0.000674,-0.000574,0.000674,1.000000,-0.000110,0.000574,0.000110,1.000000
08802,5.718230,0.656926,7.939511,0.003425,-0.006222,-0.006287,0.001221,0.003354,-0.000490,0.676976,-0.776123,-1.457497,0.057184,0.006569,0.079394,1.000000,0.000006,0.000017,-0.000002,-1.000000,0.000049,-0.000278,0.000341,-0.005569,0.031853,-0.039079,1.000000,-0.000682,-0.000556,0.000682,1.000000,-0.000097,0.000556,0.000097,1.000000
08803,5.746807,0.679039,7.917926,0.037973,0.017442,-0.005614,0.002725,0.003672,-0.000177,0.681643,-0.778576,-1.457716,0.057470,0.006789,0.079178,1.000000,0.000014,0.000018,-0.000001,-1.000000,0.000038,-0.000271,0.000345,-0.004402,0.031051,-0.039490,1.000000,-0.000689,-0.000542,0.000689,1.000000,-0.000077,0.000542,0.000076,1.000000
08804,5.733832,0.687689,7.937290,0.015720,0.024253,0.003090,0.002584,0.005190,-0.000579,0.672037,-0.786240,-1.463594,0.057340,0.006876,0.079371,1.000000,0.000013,0.000026,-0.000003,-1.000000,0.000028,-0.000272,0.000356,-0.003165,0.031223,-0.040754,1.000000,-0.000711,-0.000545,0.000711,1.000000,-0.000055,0.000545,0.000055,1.000000
08805,5.717122,0.657468,7.940263,0.001947,-0.006198,-0.006287,0.000514,0.006671,0.000167,0.683091,-0.778311,-1.460570,0.057174,0.006575,0.079401,1.000000,0.000003,0.000033,0.000001,-1.000000,0.000028,-0.000280,0.000363,-0.003225,0.032117,-0.041629,1.000000,-0.000727,-0.000561,0.000727,1.000000,-0.000056,0.000561,0.000056,1.000000
08806,5.745517,0.679431,7.918828,0.036487,0.017440,-0.005608,0.000656,0.005153,0.000568,0.675744,-0.779023,-1.455363,0.057457,0.006794,0.079187,1.000000,0.000003,0.000026,0.000003,-1.000000,0.000028,-0.000280,0.000367,-0.003179,0.032068,-0.042033,1.000000,-0.000734,-0.000560,0.000734,1.000000,-0.000055,0.000560,0.000055,1.000000
08807,5.711950,0.678424,7.928966,0.003462,0.015577,-0.017031,0.002019,0.006990,0.000480,0.683008,-0.784089,-1.462129,0.057122,0.006784,0.079288,1.000000,0.000010,0.000035,0.000002,-1.000000,0.000023,-0.000289,0.000369,-0.002651,0.033129,-0.042247,1.000000,-0.000737,-0.000578,0.000737,1.000000,-0.000046,0.000578,0.000046,1.000000
08808,5.731974,0.687929,7.938611,0.013734,0.024239,0.003093,0.001456,0.004519,0.004202,0.681507,-0.772026,-1.460457,0.057321,0.006880,0.079385,1.000000,0.000007,0.000023,0.000021,-1.000000,0.000029,-0.000285,0.000359,-0.003371,0.032678,-0.041110,1.000000,-0.000718,-0.000570,0.000717,1.000000,-0.000059,0.000570,0.000058,1.000000
08809,5.715245,0.657701,7.941596,-0.000041,-0.006211,-0.006286,0.002724,0.007943,-0.002841,0.676347,-0.776852,-1.461643,0.057156,0.006575,0.079414,1.000000,0.000014,0.000040,-0.000014,-1.000000,0.000012,-0.000301,0.000372,-0.001437,0.034442,-0.042591,1.000000,-0.000743,-0.000601,0.000743,1.000000,-0.000025,0.000601,0.000025,1.000000
08810,5.743494,0.679884,7.920257,0.034509,0.017473,-0.005601,0.003100,0.007591,0.002252,0.678806,-0.776021,-1.461300,0.057438,0.006798,0.079200,1.000000,0.000016,0.000038,0.000011,-1.000000,0.000010,-0.000312,0.000372,-0.001173,0.035745,-0.042612,1.000000,-0.000744,-0.000624,0.000744,1.000000,-0.000020,0.000624,0.000020,1.000000
08811,5.730257,0.688334,7.939815,0.012239,0.024296,0.003094,-0.001131,0.007870,-0.000547,0.682153,-0.779955,-1.455079,0.057306,0.006884,0.079396,1.000000,-0.000006,0.000039,-0.000003,-1.000000,0.000016,-0.000326,0.000387,-0.001795,0.037358,-0.044322,0.999999,-0.000774,-0.000652,0.000774,1.000000,-0.000031,0.000652,0.000031,1.000000
08812,5.709261,0.678805,7.930870,0.001008,0.015615,-0.017031,0.001737,0.005755,0.002341,0.676487,-0.776974,-1.459746,0.057095,0.006788,0.079307,1.000000,0.000009,0.000029,0.000012,-1.000000,0.000017,-0.000329,0.000389,-0.001928,0.037734,-0.044562,0.999999,-0.000778,-0.000659,0.000778,1.000000,-0.000034,0.000659,0.000033,1.000000
08813,5.712991,0.657911,7.943200,-0.002016,-0.006152,-0.006287,0.000091,0.006954,0.001626,0.675126,-0.777056,-1.459525,0.057133,0.006580,0.079430,1.000000,0.000000,0.000035,0.000008,-1.000000,0.000023,-0.000338,0.000392,-0.002678,0.038720,-0.044890,0.999999,-0.000783,-0.000676,0.000783,1.000000,-0.000047,0.000676,0.000046,1.000000
08814,5.728752,0.688173,7.940915,0.010747,0.024322,0.003096,0.000233,0.005436,0.002028,0.679900,-0.772736,-1.461986,0.057290,0.006882,0.079408,1.000000,0.000001,0.000027,0.000010,-1.000000,0.000030,-0.000338,0.000393,-0.003485,0.038709,-0.045061,0.999999,-0.000786,-0.000676,0.000786,1.000000,-0.000061,0.000676,0.000060,1.000000
08815,5.732620,0.667275,7.953145,0.007720,0.002556,0.013841,0.000798,0.003636,0.000970,0.674787,-0.775475,-1.457796,0.057328,0.006673,0.079530,1.000000,0.000004,0.000018,0.000005,-1.000000,0.000031,-0.000330,0.000398,-0.003596,0.037832,-0.045586,0.999999,-0.000796,-0.000660,0.000796,1.000000,-0.000063,0.000660,0.000062,1.000000
08816,5.707659,0.678469,7.932051,-0.001008,0.015686,-0.017031,-0.001554,0.003882,0.003575,0.679956,-0.778899,-1.464994,0.057078,0.006786,0.079319,1.000000,-0.000008,0.000019,0.000018,-1.000000,0.000051,-0.000322,0.000404,-0.005820,0.036906,-0.046347,0.999999,-0.000809,-0.000644,0.000809,1.000000,-0.000102,0.000644,0.000101,1.000000
08817,5.711556,0.657527,7.944264,-0.004037,-0.006080,-0.006287,-0.000000,0.004271,-0.002664,0.675127,-0.782815,-1.454085,0.057117,0.006575,0.079441,1.000000,-0.000000,0.000021,-0.000013,-1.000000,0.000044,-0.000319,0.000426,-0.005112,0.036565,-0.048799,0.999999,-0.000852,-0.000638,0.000852,1.000000,-0.000089,0.000638,0.000089,1.000000
08818,5.723843,0.649228,7.925389,0.017236,-0.012912,-0.014973,0.003383,0.004556,0.003055,0.684247,-0.780258,-1.456321,0.057240,0.006492,0.079253,1.000000,0.000017,0.000023,0.000015,-1.000000,0.000040,-0.000315,0.000413,-0.004597,0.036089,-0.047273,0.999999,-0.000825,-0.000630,0.000825,1.000000,-0.000080,0.000630,0.000080,1.000000
08819,5.727070,0.688002,7.942143,0.008245,0.024374,0.003098,0.000233,0.005436,0.002027,0.684161,-0.779081,-1.462897,0.057273,0.006881,0.079420,1.000000,0.000001,0.000027,0.000010,-1.000000,0.000047,-0.000316,0.000414,-0.005373,0.036190,-0.047427,0.999999,-0.000828,-0.000632,0.000828,1.000000,-0.000094,0.000632,0.000093,1.000000
08820,5.718284,0.675410,7.973508,-0.016523,0.009408,0.022526,-0.000049,0.004201,0.003888,0.674076,-0.780501,-1.467270,0.057184,0.006755,0.079734,1.000000,-0.000000,0.000021,0.000019,-1.000000,0.000059,-0.000312,0.000419,-0.006752,0.035726,-0.048036,0.999999,-0.000838,-0.000624,0.000838,1.000000,-0.000118,0.000624,0.000117,1.000000
08821,5.730632,0.666767,7.954621,0.004753,0.002599,0.013842,-0.001130,0.003600,0.002116,0.685593,-0.775798,-1.456102,0.057308,0.006669,0.079545,1.000000,-0.000006,0.000018,0.000011,-1.000000,0.000071,-0.000303,0.000425,-0.008141,0.034774,-0.048675,0.999999,-0.000850,-0.000607,0.000849,1.000000,-0.000142,0.000607,0.000142,1.000000
08822,5.734616,0.645857,7.966766,0.001719,-0.019166,0.024586,0.002444,0.002437,0.001684,0.678242,-0.774096,-1.457585,0.057347,0.006458,0.079667,1.000000,0.000012,0.000012,0.000008,-1.000000,0.000067,-0.000290,0.000427,-0.007698,0.033189,-0.048941,0.999999,-0.000854,-0.000579,0.000854,1.000000,-0.000134,0.000579,0.000134,1.000000
08823,5.725813,0.687562,7.943087,0.006297,0.024397,0.003100,0.001173,0.007555,0.003398,0.678784,-0.779933,-1.465036,0.057261,0.006876,0.079429,1.000000,0.000006,0.000038,0.000017,-1.000000,0.000074,-0.000301,0.000419,-0.008551,0.034433,-0.048063,0.999999,-0.000839,-0.000601,0.000839,1.000000,-0.000149,0.000601,0.000149,1.000000
08824,5.742258,0.658304,7.936243,0.025029,-0.004183,0.005164,0.000142,0.002753,-0.002262,0.678018,-0.781615,-1.466062,0.057424,0.006582,0.079362,1.000000,0.000001,0.000014,-0.000011,-1.000000,0.000069,-0.000289,0.000443,-0.007914,0.033170,-0.050798,0.999999,-0.000887,-0.000579,0.000887,1.000000,-0.000138,0.000579,0.000138,1.000000
08825,5.725187,0.687584,7.943537,0.005297,0.024425,0.003100,0.001596,0.003002,0.004603,0.678602,-0.773628,-1.460597,0.057253,0.006877,0.079435,1.000000,0.000008,0.000015,0.000023,-1.000000,0.000077,-0.000277,0.000431,-0.008844,0.031758,-0.049396,0.999999,-0.000862,-0.000554,0.000862,1.000000,-0.000154,0.000554,0.000154,1.000000
08826,5.729180,0.666623,7.955679,0.002243,0.002671,0.013843,-0.001787,0.002717,-0.001116,0.677027,-0.770932,-1.461752,0.057293,0.006667,0.079556,1.000000,-0.000009,0.000014,-0.000006,-1.000000,0.000083,-0.000265,0.000455,-0.009504,0.030375,-0.052144,0.999999,-0.000910,-0.000530,0.000910,1.000000,-0.000166,0.000530,0.000165,1.000000
08827,5.761892,0.667722,7.946192,0.034262,0.004536,0.025301,0.002021,0.006990,0.000480,0.672953,-0.777704,-1.462358,0.057622,0.006677,0.079460,1.000000,0.000010,0.000035,0.000002,-1.000000,0.000078,-0.000274,0.000457,-0.008976,0.031436,-0.052359,0.999999,-0.000914,-0.000549,0.000914,1.000000,-0.000157,0.000549,0.000156,1.000000
08828,5.699423,0.698930,7.923004,-0.004438,0.037595,-0.027776,0.001738,0.005755,0.002341,0.676835,-0.783504,-1.453533,0.056996,0.006989,0.079228,1.000000,0.000009,0.000029,0.000012,-1.000000,0.000081,-0.000275,0.000453,-0.009339,0.031510,-0.051937,0.999999,-0.000906,-0.000550,0.000906,1.000000,-0.000163,0.000550,0.000162,1.000000
08829,5.727797,0.666788,7.956661,0.000714,0.002732,0.013844,0.002021,0.006990,0.000480,0.673263,-0.785368,-1.461116,0.057281,0.006667,0.079565,1.000000,0.000010,0.000035,0.000002,-1.000000,0.000077,-0.000284,0.000455,-0.008811,0.032571,-0.052151,0.999999,-0.000910,-0.000568,0.000910,1.000000,-0.000154,0.000569,0.000153,1.000000
08830,5.764526,0.647071,7.959293,0.030174,-0.017238,0.036049,0.002677,0.007874,0.003712,0.676049,-0.779995,-1.462483,0.057648,0.006471,0.079591,1.000000,0.000013,0.000039,0.000019,-1.000000,0.000076,-0.000296,0.000432,-0.008738,0.033922,-0.049504,0.999999,-0.000864,-0.000592,0.000864,1.000000,-0.000153,0.000592,0.000152,1.000000
08831,5.714075,0.675352,7.976530,-0.022071,0.009521,0.022515,0.001082,0.004872,-0.000892,0.669400,-0.778881,-1.462015,0.057143,0.006753,0.079764,1.000000,0.000005,0.000024,-0.000004,-1.000000,0.000071,-0.000295,0.000443,-0.008132,0.033840,-0.050750,0.999999,-0.000886,-0.000591,0.000886,1.000000,-0.000142,0.000591,0.000141,1.000000
08832,5.734681,0.679367,7.926685,0.023489,0.017653,-0.005569,0.001173,0.007556,0.003398,0.681593,-0.770264,-1.453880,0.057350,0.006794,0.079265,1.000000,0.000006,0.000038,0.000017,-1.000000,0.000078,-0.000304,0.000427,-0.008972,0.034817,-0.048987,0.999999,-0.000855,-0.000608,0.000855,1.000000,-0.000157,0.000608,0.000156,1.000000
08833,5.721542,0.687922,7.946133,0.001213,0.024489,0.003102,0.003010,0.004908,-0.002037,0.679523,-0.780868,-1.454347,0.057217,0.006877,0.079460,1.000000,0.000015,0.000025,-0.000010,-1.000000,0.000062,-0.000304,0.000437,-0.007087,0.034809,-0.050118,0.999999,-0.000875,-0.000608,0.000875,1.000000,-0.000124,0.000608,0.000123,1.000000
08834,5.700795,0.678652,7.936970,-0.009987,0.015811,-0.017036,0.002444,0.002437,0.001685,0.680685,-0.779689,-1.467265,0.057009,0.006786,0.079369,1.000000,0.000012,0.000012,0.000008,-1.000000,0.000057,-0.000291,0.000443,-0.006565,0.033399,-0.050804,0.999999,-0.000887,-0.000583,0.000887,1.000000,-0.000115,0.000583,0.000114,1.000000
08835,5.737752,0.658990,7.939445,0.019477,-0.004105,0.005176,0.000941,0.006390,-0.001294,0.679918,-0.776590,-1.455734,0.057380,0.006589,0.079393,1.000000,0.000005,0.000032,-0.000006,-1.000000,0.000052,-0.000298,0.000456,-0.005933,0.034202,-0.052224,0.999999,-0.000911,-0.000597,0.000911,1.000000,-0.000104,0.000597,0.000103,1.000000
08836,5.691546,0.666386,7.968616,-0.035306,0.000885,0.002370,-0.000847,0.004836,0.000254,0.672548,-0.778657,-1.463049,0.056917,0.006664,0.079685,1.000000,-0.000004,0.000024,0.000001,-1.000000,0.000057,-0.000297,0.000473,-0.006602,0.034079,-0.054241,0.999999,-0.000947,-0.000595,0.000947,1.000000,-0.000115,0.000595,0.000115,1.000000
08837,5.724294,0.667518,7.959120,-0.003292,0.002743,0.013843,0.003807,0.004274,0.001597,0.679714,-0.778859,-1.462146,0.057245,0.006674,0.079590,1.000000,0.000019,0.000021,0.000008,-1.000000,0.000048,-0.000293,0.000466,-0.005538,0.033536,-0.053445,0.999999,-0.000933,-0.000585,0.000933,1.000000,-0.000097,0.000585,0.000096,1.000000
08838,5.719784,0.688589,7.947341,-0.001261,0.024530,0.003101,0.002727,0.003673,-0.000176,0.677587,-0.780503,-1.457510,0.057199,0.006885,0.079472,1.000000,0.000014,0.000018,-0.000001,-1.000000,0.000038,-0.000284,0.000468,-0.004380,0.032587,-0.053663,0.999999,-0.000937,-0.000569,0.000937,1.000000,-0.000076,0.000569,0.000076,1.000000
08839,5.732021,0.680229,7.928535,0.020021,0.017711,-0.005561,0.000093,0.006955,0.001625,0.678767,-0.778636,-1.462502,0.057323,0.006803,0.079283,1.000000,0.000000,0.000035,0.000008,-1.000000,0.000045,-0.000293,0.000471,-0.005130,0.033573,-0.053992,0.999999,-0.000942,-0.000586,0.000942,1.000000,-0.000090,0.000586,0.000089,1.000000
08840,5.731488,0.680370,7.928908,0.019522,0.017706,-0.005560,0.002870,0.006426,-0.002439,0.665034,-0.783707,-1.462631,0.057318,0.006802,0.079287,1.000000,0.000014,0.000032,-0.000012,-1.000000,0.000027,-0.000301,0.000483,-0.003132,0.034439,-0.055375,0.999999,-0.000966,-0.000601,0.000966,1.000000,-0.000055,0.000601,0.000054,1.000000
08841,5.735218,0.659544,7.941229,0.016466,-0.004059,0.005182,-0.001695,0.005402,0.003172,0.681569,-0.774439,-1.460962,0.057354,0.006597,0.079411,1.000000,-0.000008,0.000027,0.000016,-1.000000,0.000045,-0.000301,0.000486,-0.005185,0.034465,-0.055644,0.999999,-0.000971,-0.000602,0.000971,1.000000,-0.000091,0.000602,0.000090,1.000000
08842,5.750944,0.689924,7.938984,0.029215,0.026399,0.014584,0.002730,0.007943,-0.002841,0.669853,-0.778901,-1.461390,0.057513,0.006897,0.079388,1.000000,0.000014,0.000040,-0.000014,-1.000000,0.000028,-0.000314,0.000492,-0.003239,0.035987,-0.056377,0.999999,-0.000984,-0.000628,0.000984,1.000000,-0.000057,0.000628,0.000056,1.000000
08843,5.750360,0.690020,7.939398,0.028717,0.026409,0.014585,-0.001412,0.006637,0.001310,0.677980,-0.778088,-1.463916,0.057506,0.006901,0.079392,1.000000,-0.000007,0.000033,0.000007,-1.000000,0.000040,-0.000321,0.000501,-0.004575,0.036807,-0.057367,0.999999,-0.001001,-0.000642,0.001001,0.999999,-0.000080,0.000642,0.000079,1.000000
08844,5.701205,0.652956,7.892560,0.017779,-0.006431,-0.054499,0.000233,0.005438,0.002026,0.676174,-0.781497,-1.454705,0.057014,0.006530,0.078924,1.000000,0.000001,0.000027,0.000010,-1.000000,0.000047,-0.000320,0.000497,-0.005380,0.036671,-0.056980,0.999999,-0.000994,-0.000640,0.000994,1.000000,-0.000094,0.000640,0.000093,1.000000
08845,5.716308,0.688779,7.949825,-0.004828,0.024593,0.003100,0.000517,0.006673,0.000165,0.673848,-0.776021,-1.464860,0.057166,0.006888,0.079496,1.000000,0.000003,0.000033,0.000001,-1.000000,0.000047,-0.000328,0.000505,-0.005439,0.037566,-0.057855,0.999999,-0.001010,-0.000656,0.001010,0.999999,-0.000095,0.000656,0.000094,1.000000
08846,5.720059,0.667933,7.962130,-0.007912,0.002820,0.013840,0.002958,0.004839,0.004515,0.678323,-0.777542,-1.457279,0.057202,0.006679,0.079620,1.000000,0.000015,0.000024,0.000023,-1.000000,0.000050,-0.000324,0.000485,-0.005704,0.037071,-0.055576,0.999999,-0.000970,-0.000647,0.000970,1.000000,-0.000100,0.000647,0.000099,1.000000
08847,5.695026,0.679170,7.941066,-0.016570,0.015931,-0.017045,-0.000191,0.005721,0.003485,0.680634,-0.783662,-1.470124,0.056952,0.006793,0.079409,1.000000,-0.000001,0.000029,0.000017,-1.000000,0.000062,-0.000325,0.000482,-0.007170,0.037264,-0.055184,0.999999,-0.000963,-0.000650,0.000963,1.000000,-0.000125,0.000651,0.000125,1.000000
08848,5.715071,0.688597,7.950730,-0.006348,0.024606,0.003099,0.004463,0.005158,0.004829,0.665932,-0.783219,-1.465556,0.057153,0.006886,0.079506,1.000000,0.000022,0.000026,0.000024,-1.000000,0.000060,-0.000323,0.000461,-0.006848,0.037041,-0.052795,0.999999,-0.000921,-0.000646,0.000921,1.000000,-0.000120,0.000647,0.000119,1.000000
08849,5.727399,0.680147,7.931881,0.014937,0.017782,-0.005552,0.000374,0.003920,0.002428,0.680634,-0.781820,-1.457568,0.057275,0.006802,0.079318,1.000000,0.000002,0.000020,0.000012,-1.000000,0.000067,-0.000316,0.000461,-0.007650,0.036257,-0.052774,0.999999,-0.000921,-0.000633,0.000921,1.000000,-0.000134,0.000633,0.000133,1.000000
08850,5.706005,0.676044,7.982246,-0.031732,0.009662,0.022488,0.001594,0.003003,0.004603,0.677013,-0.779793,-1.457547,0.057061,0.006761,0.079822,1.000000,0.000008,0.000015,0.000023,-1.000000,0.000073,-0.000302,0.000438,-0.008424,0.034626,-0.050202,0.999999,-0.000876,-0.000604,0.000876,1.000000,-0.000147,0.000604,0.000146,1.000000
08851,5.747341,0.689503,7.941629,0.024625,0.026449,0.014596,0.002303,0.003955,0.001283,0.678216,-0.784435,-1.460479,0.057475,0.006894,0.079415,1.000000,0.000012,0.000020,0.000006,-1.000000,0.000069,-0.000296,0.000437,-0.007947,0.033916,-0.050066,0.999999,-0.000874,-0.000592,0.000874,1.000000,-0.000139,0.000592,0.000138,1.000000
08852,5.713995,0.688500,7.951512,-0.008375,0.024585,0.003098,0.000939,0.002119,0.001371,0.678753,-0.780136,-1.462063,0.057141,0.006885,0.079515,1.000000,0.000005,0.000011,0.000007,-1.000000,0.000069,-0.000281,0.000437,-0.007871,0.032159,-0.050038,0.999999,-0.000873,-0.000561,0.000873,1.000000,-0.000137,0.000561,0.000137,1.000000
08853,5.730686,0.659208,7.944528,0.010341,-0.004014,0.005190,0.000939,0.002119,0.001371,0.683010,-0.767383,-1.459201,0.057308,0.006592,0.079445,1.000000,0.000005,0.000011,0.000007,-1.000000,0.000070,-0.000265,0.000440,-0.008007,0.030397,-0.050388,0.999999,-0.000879,-0.000531,0.000879,1.000000,-0.000140,0.000531,0.000139,1.000000
08854,5.726282,0.680061,7.932695,0.012427,0.017794,-0.005549,0.000799,0.003637,0.000969,0.673765,-0.778738,-1.460977,0.057264,0.006801,0.079326,1.000000,0.000004,0.000018,0.000005,-1.000000,0.000072,-0.000258,0.000457,-0.008261,0.029592,-0.052325,0.999999,-0.000913,-0.000516,0.000913,1.000000,-0.000144,0.000517,0.000144,1.000000
08855,5.730170,0.659101,7.944909,0.009357,-0.003969,0.005191,-0.000050,0.004203,0.003887,0.678784,-0.782632,-1.454154,0.057303,0.006592,0.079448,1.000000,-0.000000,0.000021,0.000019,-1.000000,0.000085,-0.000252,0.000452,-0.009754,0.028899,-0.051759,0.999999,-0.000903,-0.000504,0.000903,1.000000,-0.000170,0.000505,0.000170,1.000000
08856,5.759257,0.621327,7.919039,0.049851,-0.039442,-0.001356,0.002023,0.006991,0.000479,0.683011,-0.776203,-1.459204,0.057595,0.006213,0.079188,1.000000,0.000010,0.000035,0.000002,-1.000000,0.000079,-0.000261,0.000450,-0.009036,0.029942,-0.051581,0.999999,-0.000900,-0.000523,0.000900,1.000000,-0.000158,0.000523,0.000157,1.000000
08857,5.716660,0.667622,7.964597,-0.013428,0.002858,0.013834,0.001224,0.003354,-0.000490,0.676021,-0.781515,-1.465374,0.057168,0.006676,0.079645,1.000000,0.000006,0.000017,-0.000002,-1.000000,0.000074,-0.000253,0.000459,-0.008454,0.028973,-0.052651,0.999999,-0.000919,-0.000506,0.000919,1.000000,-0.000148,0.000506,0.000147,1.000000
08858,5.749369,0.668695,7.955176,0.018574,0.004697,0.025343,0.000094,0.006956,0.001623,0.681547,-0.776509,-1.452143,0.057496,0.006687,0.079550,1.000000,0.000000,0.000035,0.000008,-1.000000,0.000080,-0.000262,0.000466,-0.009185,0.029965,-0.053414,0.999999,-0.000932,-0.000523,0.000932,1.000000,-0.000160,0.000523,0.000160,1.000000
08859,5.698843,0.697175,7.972359,-0.033633,0.031490,0.011734,0.005882,0.007062,-0.001810,0.668948,-0.781560,-1.451758,0.056991,0.006969,0.079722,1.000000,0.000029,0.000035,-0.000009,-1.000000,0.000053,-0.000272,0.000466,-0.006099,0.031176,-0.053396,0.999999,-0.000932,-0.000544,0.000932,1.000000,-0.000106,0.000544,0.000106,1.000000
08860,5.732043,0.638943,7.958510,0.004292,-0.025768,0.015932,0.002163,0.005474,0.000881,0.683361,-0.782831,-1.465969,0.057323,0.006389,0.079584,1.000000,0.000011,0.000027,0.000004,-1.000000,0.000047,-0.000274,0.000463,-0.005353,0.031395,-0.053072,0.999999,-0.000926,-0.000548,0.000926,1.000000,-0.000093,0.000548,0.000093,1.000000
08861,5.702746,0.671385,7.925478,-0.001761,0.009119,-0.025697,0.003953,0.007027,-0.000666,0.682638,-0.782832,-1.462869,0.057030,0.006712,0.079253,1.000000,0.000020,0.000035,-0.000003,-1.000000,0.000031,-0.000284,0.000464,-0.003545,0.032531,-0.053170,0.999999,-0.000928,-0.000568,0.000928,1.000000,-0.000062,0.000568,0.000061,1.000000
08862,5.734629,0.678252,7.975656,-0.005183,0.011515,0.033984,0.003668,0.005792,0.001195,0.676177,-0.778272,-1.458895,0.057349,0.006781,0.079755,1.000000,0.000018,0.000029,0.000006,-1.000000,0.000020,-0.000288,0.000462,-0.002326,0.032978,-0.052989,0.999999,-0.000925,-0.000576,0.000925,1.000000,-0.000041,0.000576,0.000040,1.000000
08863,5.722188,0.681402,7.935534,0.007975,0.017787,-0.005544,0.002449,0.006709,-0.000980,0.685696,-0.782934,-1.459175,0.057225,0.006813,0.079354,1.000000,0.000012,0.000034,-0.000005,-1.000000,0.000010,-0.000296,0.000469,-0.001105,0.033948,-0.053748,0.999999,-0.000938,-0.000593,0.000938,1.000000,-0.000019,0.000593,0.000019,1.000000
08864,5.725795,0.660847,7.947918,0.004915,-0.004002,0.005194,0.005032,0.007629,0.001108,0.680229,-0.782893,-1.463700,0.057261,0.006607,0.079477,1.000000,0.000025,0.000038,0.000006,-1.000000,-0.000007,-0.000309,0.000463,0.000749,0.035461,-0.053041,0.999999,-0.000926,-0.000619,0.000926,1.000000,0.000013,0.000619,-0.000014,1.000000
08865,5.708947,0.630850,7.950926,-0.008877,-0.034433,-0.004222,0.003953,0.007027,-0.000666,0.681943,-0.775291,-1.458972,0.057092,0.006307,0.079507,1.000000,0.000020,0.000035,-0.000003,-1.000000,-0.000022,-0.000319,0.000464,0.002557,0.036598,-0.053139,0.999999,-0.000927,-0.000639,0.000927,1.000000,0.000045,0.000639,-0.000045,1.000000
08866,5.720433,0.682405,7.936713,0.006514,0.017787,-0.005543,0.002734,0.007944,-0.002842,0.679377,-0.777135,-1.462513,0.057208,0.006822,0.079365,1.000000,0.000014,0.000040,-0.000014,-1.000000,-0.000040,-0.000335,0.000482,0.004528,0.038427,-0.055265,0.999999,-0.000965,-0.000671,0.000965,1.000000,0.000079,0.000671,-0.000080,1.000000
08867,5.712086,0.664671,7.908658,0.017097,0.002284,-0.034330,0.000519,0.006674,0.000163,0.681931,-0.776529,-1.455187,0.057123,0.006647,0.079085,1.000000,0.000003,0.000033,0.000001,-1.000000,-0.000039,-0.000343,0.000490,0.004471,0.039323,-0.056140,0.999999,-0.000980,-0.000686,0.000980,1.000000,0.000078,0.000686,-0.000079,1.000000
08868,5.723460,0.662007,7.949503,0.002947,-0.003965,0.005195,0.005458,0.007346,-0.000351,0.682175,-0.777764,-1.458457,0.057238,0.006618,0.079493,1.000000,0.000027,0.000037,-0.000002,-1.000000,-0.000060,-0.000355,0.000492,0.006861,0.040708,-0.056425,0.999999,-0.000985,-0.000710,0.000985,1.000000,0.000120,0.000710,-0.000120,1.000000
08869,5.710157,0.670869,7.968988,-0.019340,0.002892,0.013824,0.002735,0.007944,-0.002842,0.674776,-0.778292,-1.463222,0.057105,0.006707,0.079688,1.000000,0.000014,0.000040,-0.000014,-1.000000,-0.000077,-0.000371,0.000505,0.008800,0.042473,-0.057904,0.999999,-0.001011,-0.000741,0.001011,0.999999,0.000154,0.000741,-0.000154,1.000000
08870,5.718063,0.683635,7.938314,0.004533,0.017831,-0.005542,0.003953,0.007028,-0.000666,0.672111,-0.781415,-1.462441,0.057183,0.006835,0.079381,1.000000,0.000020,0.000035,-0.000003,-1.000000,-0.000093,-0.000380,0.000509,0.010594,0.043567,-0.058318,0.999999,-0.001018,-0.000760,0.001018,0.999999,0.000185,0.000760,-0.000186,1.000000
08871,5.692125,0.700880,7.976832,-0.039541,0.031537,0.011712,0.003954,0.007028,-0.000666,0.678915,-0.781128,-1.468986,0.056924,0.007007,0.079766,1.000000,0.000020,0.000035,-0.000003,-1.000000,-0.000108,-0.000390,0.000510,0.012402,0.044705,-0.058416,0.999999,-0.001020,-0.000780,0.001020,0.999999,0.000216,0.000780,-0.000217,1.000000
08872,5.749230,0.690945,7.988968,0.000524,0.020263,0.054138,0.003814,0.008546,-0.001069,0.680040,-0.784880,-1.463437,0.057496,0.006908,0.079887,1.000000,0.000019,0.000043,-0.000005,-1.000000,-0.000124,-0.000406,0.000507,0.014227,0.046485,-0.058111,0.999999,-0.001014,-0.000811,0.001014,0.999999,0.000248,0.000811,-0.000249,1.000000
08873,5.720445,0.663758,7.951527,0.000407,-0.003908,0.005196,0.000945,0.006391,-0.001296,0.676089,-0.781778,-1.465051,0.057207,0.006637,0.079513,1.000000,0.000005,0.000032,-0.000006,-1.000000,-0.000130,-0.000413,0.000520,0.014862,0.047289,-0.059531,0.999999,-0.001039,-0.000825,0.001039,0.999999,0.000259,0.000825,-0.000260,1.000000
08874,5.707290,0.672122,7.970935,-0.021900,0.002933,0.013819,-0.001697,0.005404,0.003167,0.680543,-0.775047,-1.459952,0.057075,0.006723,0.079708,1.000000,-0.000008,0.000027,0.000016,-1.000000,-0.000113,-0.000412,0.000518,0.012916,0.047205,-0.059379,0.999999,-0.001036,-0.000824,0.001037,0.999999,0.000225,0.000824,-0.000226,1.000000
08875,5.715316,0.684419,7.940225,0.001986,0.017867,-0.005541,0.003102,0.007595,0.002251,0.679311,-0.782489,-1.459492,0.057156,0.006844,0.079400,1.000000,0.000016,0.000038,0.000011,-1.000000,-0.000117,-0.000423,0.000510,0.013342,0.048527,-0.058386,0.999999,-0.001019,-0.000847,0.001019,0.999999,0.000233,0.000847,-0.000234,1.000000
08876,5.702095,0.692812,7.959676,-0.020295,0.024721,0.003080,0.000886,0.006325,0.005256,0.672760,-0.781578,-1.459578,0.057023,0.006929,0.079595,1.000000,0.000004,0.000032,0.000026,-1.000000,-0.000103,-0.000428,0.000500,0.011810,0.049011,-0.057245,0.999999,-0.000999,-0.000855,0.000999,0.999999,0.000206,0.000855,-0.000207,1.000000
08877,5.718555,0.663342,7.952921,-0.001600,-0.003891,0.005196,0.001452,0.004524,0.004200,0.684218,-0.772959,-1.459210,0.057187,0.006634,0.079528,1.000000,0.000007,0.000023,0.000021,-1.000000,-0.000095,-0.000423,0.000489,0.010904,0.048486,-0.056020,0.999999,-0.000978,-0.000846,0.000978,1.000000,0.000190,0.000846,-0.000191,1.000000
08878,5.705534,0.671726,7.972226,-0.023892,0.002974,0.013814,0.001878,0.004240,0.002742,0.676237,-0.776789,-1.469860,0.057057,0.006717,0.079721,1.000000,0.000009,0.000021,0.000014,-1.000000,-0.000093,-0.000418,0.000487,0.010674,0.047847,-0.055747,0.999999,-0.000973,-0.000835,0.000973,1.000000,0.000186,0.000835,-0.000187,1.000000
08879,5.730679,0.654761,7.934278,0.019191,-0.010718,-0.003422,0.000513,0.002404,0.002829,0.672057,-0.777929,-1.456088,0.057308,0.006548,0.079342,1.000000,0.000003,0.000012,0.000014,-1.000000,-0.000086,-0.000403,0.000485,0.009846,0.046177,-0.055553,0.999999,-0.000970,-0.000806,0.000970,1.000000,0.000172,0.000806,-0.000173,1.000000
08880,5.717688,0.663103,7.953564,-0.003141,-0.003838,0.005195,0.000234,0.005440,0.002023,0.677411,-0.787011,-1.455591,0.057179,0.006632,0.079534,1.000000,0.000001,0.000027,0.000010,-1.000000,-0.000078,-0.000402,0.000483,0.008967,0.046027,-0.055396,0.999999,-0.000967,-0.000803,0.000967,1.000000,0.000157,0.000803,-0.000157,1.000000
08881,5.704780,0.671337,7.972798,-0.025431,0.003025,0.013811,-0.002356,0.000249,0.002602,0.682900,-0.780441,-1.458212,0.057048,0.006715,0.079728,1.000000,-0.000012,0.000001,0.000013,-1.000000,-0.000061,-0.000376,0.000492,0.006939,0.043138,-0.056350,0.999999,-0.000984,-0.000753,0.000984,1.000000,0.000121,0.000753,-0.000122,1.000000
08882,5.725909,0.675042,7.922755,0.020278,0.011050,-0.014156,0.001592,0.003006,0.004603,0.676600,-0.774196,-1.464506,0.057260,0.006751,0.079227,1.000000,0.000008,0.000015,0.000023,-1.000000,-0.000055,-0.000365,0.000478,0.006310,0.041850,-0.054769,0.999999,-0.000956,-0.000730,0.000956,1.000000,0.000110,0.000730,-0.000111,1.000000
08883,5.717132,0.662644,7.954002,-0.004615,-0.003858,0.005195,0.001225,0.003355,-0.000490,0.683857,-0.769268,-1.463311,0.057173,0.006626,0.079539,1.000000,0.000006,0.000017,-0.000002,-1.000000,-0.000060,-0.000357,0.000487,0.006892,0.040882,-0.055840,0.999999,-0.000975,-0.000714,0.000975,1.000000,0.000120,0.000713,-0.000121,1.000000
08884,5.716849,0.662652,7.954205,-0.005122,-0.003793,0.005194,0.000374,0.003922,0.002426,0.671634,-0.776487,-1.466800,0.057170,0.006627,0.079541,1.000000,0.000002,0.000020,0.000012,-1.000000,-0.000051,-0.000349,0.000500,0.005774,0.040047,-0.057306,0.999999,-0.001000,-0.000699,0.001000,0.999999,0.000101,0.000699,-0.000101,1.000000
08885,5.741876,0.645694,7.916351,0.037965,-0.017493,-0.012028,0.001739,0.005758,0.002339,0.682555,-0.779528,-1.461080,0.057421,0.006457,0.079162,1.000000,0.000009,0.000029,0.000012,-1.000000,-0.000049,-0.000352,0.000496,0.005586,0.040316,-0.056800,0.999999,-0.000991,-0.000704,0.000991,1.000000,0.000097,0.000704,-0.000098,1.000000
08886,5.732242,0.692998,7.952230,0.007157,0.026676,0.014624,0.003104,0.007595,0.002251,0.673155,-0.779141,-1.473522,0.057325,0.006929,0.079520,1.000000,0.000016,0.000038,0.000011,-1.000000,-0.000052,-0.000362,0.000488,0.005935,0.041492,-0.055898,0.999999,-0.000976,-0.000724,0.000976,1.000000,0.000104,0.000724,-0.000104,1.000000
08887,5.748599,0.663769,7.945537,0.025843,-0.001941,0.016751,0.000660,0.005157,0.000565,0.678611,-0.782976,-1.456425,0.057488,0.006638,0.079454,1.000000,0.000003,0.000026,0.000003,-1.000000,-0.000051,-0.000362,0.000494,0.005852,0.041502,-0.056598,0.999999,-0.000988,-0.000724,0.000988,1.000000,0.000102,0.000724,-0.000103,1.000000
08888,5.723432,0.675296,7.924523,0.017229,0.011175,-0.014150,0.005973,0.009750,0.002479,0.680794,-0.770932,-1.459046,0.057238,0.006751,0.079243,1.000000,0.000030,0.000049,0.000012,-1.000000,-0.000066,-0.000383,0.000471,0.007494,0.043843,-0.053958,0.999999,-0.000942,-0.000765,0.000942,1.000000,0.000131,0.000765,-0.000132,1.000000
08889,5.730556,0.693354,7.953414,0.005629,0.026705,0.014625,0.001313,0.006042,0.003797,0.672659,-0.787922,-1.463622,0.057308,0.006934,0.079532,1.000000,0.000007,0.000030,0.000019,-1.000000,-0.000058,-0.000386,0.000462,0.006615,0.044204,-0.052907,0.999999,-0.000923,-0.000772,0.000923,1.000000,0.000115,0.000771,-0.000116,1.000000
08890,5.701183,0.671247,7.975378,-0.029982,0.003134,0.013798,-0.000479,0.004490,0.005342,0.678745,-0.782548,-1.466238,0.057013,0.006714,0.079752,1.000000,-0.000002,0.000022,0.000027,-1.000000,-0.000039,-0.000380,0.000451,0.004464,0.043503,-0.051647,0.999999,-0.000901,-0.000759,0.000901,1.000000,0.000078,0.000759,-0.000079,1.000000
08891,5.713438,0.662736,7.956648,-0.008686,-0.003713,0.005192,0.003530,0.007312,0.000793,0.677114,-0.782530,-1.456851,0.057137,0.006626,0.079565,1.000000,0.000018,0.000037,0.000004,-1.000000,-0.000049,-0.000390,0.000447,0.005582,0.044732,-0.051199,0.999999,-0.000894,-0.000781,0.000894,1.000000,0.000097,0.000781,-0.000098,1.000000
08892,5.750278,0.642931,7.959338,0.020676,-0.023696,0.027493,-0.000052,0.004206,0.003884,0.673104,-0.776731,-1.462150,0.057504,0.006430,0.079592,1.000000,-0.000000,0.000021,0.000019,-1.000000,-0.000037,-0.000384,0.000439,0.004243,0.043993,-0.050280,0.999999,-0.000878,-0.000768,0.000878,1.000000,0.000074,0.000768,-0.000075,1.000000
08893,5.692250,0.653135,7.947790,-0.020377,-0.012380,-0.014979,0.001878,0.004241,0.002742,0.679575,-0.786097,-1.460278,0.056924,0.006531,0.079477,1.000000,0.000009,0.000021,0.000014,-1.000000,-0.000035,-0.000379,0.000433,0.004029,0.043376,-0.049599,0.999999,-0.000866,-0.000757,0.000866,1.000000,0.000070,0.000757,-0.000071,1.000000
08894,5.715891,0.701365,7.973918,-0.018700,0.033566,0.023227,0.000235,0.005441,0.002023,0.679272,-0.782284,-1.466135,0.057161,0.007014,0.079738,1.000000,0.000001,0.000027,0.000010,-1.000000,-0.000030,-0.000379,0.000430,0.003365,0.043377,-0.049296,0.999999,-0.000860,-0.000757,0.000860,1.000000,0.000059,0.000757,-0.000059,1.000000
08895,5.720382,0.674916,7.926757,0.013707,0.011195,-0.014144,0.001600,0.007277,0.001935,0.685580,-0.778637,-1.453990,0.057207,0.006749,0.079266,1.000000,0.000008,0.000036,0.000010,-1.000000,-0.000028,-0.000389,0.000427,0.003206,0.044532,-0.048964,0.999999,-0.000855,-0.000777,0.000855,1.000000,0.000056,0.000777,-0.000057,1.000000
08896,5.723991,0.654046,7.939163,0.010617,-0.010586,-0.003409,-0.000982,0.006357,-0.000155,0.673763,-0.779001,-1.464323,0.057242,0.006541,0.079390,1.000000,-0.000005,0.000032,-0.000001,-1.000000,-0.000024,-0.000396,0.000446,0.002682,0.045405,-0.051135,0.999999,-0.000892,-0.000792,0.000893,1.000000,0.000047,0.000792,-0.000048,1.000000
08897,5.719528,0.674802,7.927383,0.012738,0.011195,-0.014143,-0.000565,0.001802,0.001055,0.682754,-0.779528,-1.460938,0.057196,0.006749,0.079273,1.000000,-0.000003,0.000009,0.000005,-1.000000,-0.000017,-0.000379,0.000455,0.001960,0.043476,-0.052148,0.999999,-0.000910,-0.000759,0.000910,1.000000,0.000034,0.000759,-0.000035,1.000000
08898,5.719189,0.674707,7.927635,0.012230,0.011205,-0.014142,0.000096,0.006959,0.001619,0.672850,-0.779651,-1.462633,0.057195,0.006747,0.079274,1.000000,0.000000,0.000035,0.000008,-1.000000,-0.000011,-0.000387,0.000459,0.001218,0.044397,-0.052608,0.999999,-0.000918,-0.000775,0.000918,1.000000,0.000021,0.000775,-0.000022,1.000000
08899,5.697429,0.670861,7.978093,-0.034481,0.003169,0.013783,0.002592,0.005192,-0.000578,0.684312,-0.781047,-1.462689,0.056976,0.006707,0.079780,1.000000,0.000013,0.000026,-0.000003,-1.000000,-0.000021,-0.000388,0.000464,0.002414,0.044481,-0.053192,0.999999,-0.000928,-0.000776,0.000928,1.000000,0.000042,0.000776,-0.000043,1.000000
08900,5.709722,0.662472,7.959337,-0.013192,-0.003691,0.005187,0.000235,0.005441,0.002022,0.671436,-0.783727,-1.457734,0.057099,0.006625,0.079592,1.000000,0.000001,0.000027,0.000010,-1.000000,-0.000015,-0.000389,0.000466,0.001688,0.044531,-0.053378,0.999999,-0.000932,-0.000777,0.000932,1.000000,0.000029,0.000777,-0.000030,1.000000
08901,5.725660,0.692760,7.956992,-0.000387,0.026750,0.014626,0.000800,0.003639,0.000968,0.686909,-0.777661,-1.463794,0.057258,0.006928,0.079569,1.000000,0.000004,0.000018,0.000005,-1.000000,-0.000014,-0.000381,0.000470,0.001579,0.043655,-0.053904,0.999999,-0.000941,-0.000762,0.000941,1.000000,0.000028,0.000762,-0.000028,1.000000
08902,5.717600,0.674657,7.928786,0.010234,0.011219,-0.014140,-0.001696,0.005407,0.003164,0.675346,-0.783947,-1.466109,0.057178,0.006748,0.079286,1.000000,-0.000008,0.000027,0.000016,-1.000000,0.000003,-0.000381,0.000473,-0.000368,0.043690,-0.054243,0.999999,-0.000947,-0.000763,0.000947,1.000000,-0.000006,0.000763,0.000006,1.000000
08903,5.737620,0.683828,7.938528,0.020416,0.019889,0.006035,-0.001696,0.005407,0.003164,0.675803,-0.779022,-1.462559,0.057378,0.006840,0.079384,1.000000,-0.000008,0.000027,0.000016,-1.000000,0.000021,-0.000382,0.000476,-0.002420,0.043718,-0.054516,0.999999,-0.000951,-0.000763,0.000951,1.000000,-0.000042,0.000763,0.000042,1.000000
08904,5.687840,0.652151,7.951028,-0.025894,-0.012333,-0.014992,-0.001557,0.003888,0.003568,0.681859,-0.784151,-1.458437,0.056880,0.006523,0.079509,1.000000,-0.000008,0.000019,0.000018,-1.000000,0.000039,-0.000372,0.000471,-0.004449,0.042672,-0.054020,0.999999,-0.000943,-0.000745,0.000943,1.000000,-0.000078,0.000745,0.000077,1.000000
08905,5.724269,0.691749,7.958080,-0.002410,0.026766,0.014626,0.000374,0.003923,0.002426,0.685037,-0.785084,-1.453235,0.057244,0.006918,0.079580,1.000000,0.000002,0.000020,0.000012,-1.000000,0.000046,-0.000366,0.000471,-0.005250,0.041888,-0.054001,0.999999,-0.000943,-0.000731,0.000942,1.000000,-0.000092,0.000731,0.000091,1.000000
08906,5.704022,0.622518,7.944506,-0.007673,-0.041011,-0.012849,0.001313,0.006043,0.003797,0.677288,-0.783765,-1.463791,0.057043,0.006226,0.079443,1.000000,0.000007,0.000030,0.000019,-1.000000,0.000050,-0.000371,0.000463,-0.005752,0.042523,-0.053098,0.999999,-0.000927,-0.000742,0.000927,1.000000,-0.000100,0.000742,0.000100,1.000000
08907,5.736297,0.682890,7.939565,0.018439,0.019856,0.006039,-0.001845,0.002654,0.005429,0.678341,-0.783118,-1.458142,0.057364,0.006831,0.079395,1.000000,-0.000009,0.000013,0.000027,-1.000000,0.000074,-0.000357,0.000458,-0.008550,0.040872,-0.052477,0.999999,-0.000916,-0.000713,0.000916,1.000000,-0.000149,0.000713,0.000149,1.000000
08908,5.702912,0.681528,7.949387,-0.014538,0.018041,-0.005552,-0.000053,0.004207,0.003884,0.673647,-0.774704,-1.459139,0.057031,0.006816,0.079493,1.000000,-0.000000,0.000021,0.000019,-1.000000,0.000086,-0.000350,0.000448,-0.009842,0.040146,-0.051395,0.999999,-0.000897,-0.000701,0.000897,1.000000,-0.000172,0.000701,0.000171,1.000000
08909,5.735866,0.682250,7.939931,0.017437,0.019842,0.006041,-0.000202,0.001454,0.006148,0.676928,-0.782894,-1.462452,0.057359,0.006824,0.079399,1.000000,-0.000001,0.000007,0.000031,-1.000000,0.000105,-0.000330,0.000436,-0.012080,0.037775,-0.049937,0.999999,-0.000872,-0.000659,0.000871,1.000000,-0.000211,0.000659,0.000210,1.000000
08910,5.715254,0.672529,7.930658,0.006244,0.011190,-0.014137,0.000374,0.003923,0.002426,0.679802,-0.777074,-1.463106,0.057154,0.006726,0.079305,1.000000,0.000002,0.000020,0.000012,-1.000000,0.000112,-0.000322,0.000433,-0.012854,0.036858,-0.049666,0.999999,-0.000867,-0.000643,0.000867,1.000000,-0.000224,0.000643,0.000224,1.000000
08911,5.739641,0.660935,7.952246,0.013785,-0.001912,0.016775,-0.001280,0.000852,0.004374,0.674436,-0.781132,-1.457726,0.057397,0.006611,0.079522,1.000000,-0.000006,0.000004,0.000022,-1.000000,0.000131,-0.000299,0.000431,-0.014987,0.034228,-0.049414,0.999999,-0.000862,-0.000597,0.000862,1.000000,-0.000262,0.000598,0.000261,1.000000
08912,5.731782,0.642767,7.923901,0.024406,-0.017438,-0.011985,-0.000703,0.003321,0.000651,0.679197,-0.772147,-1.463938,0.057319,0.006428,0.079238,1.000000,-0.000004,0.000017,0.000003,-1.000000,0.000136,-0.000289,0.000441,-0.015626,0.033133,-0.050587,0.999999,-0.000883,-0.000578,0.000883,1.000000,-0.000273,0.000579,0.000272,1.000000
08913,5.726429,0.669191,7.971663,-0.009022,0.004968,0.025357,0.002167,0.005475,0.000881,0.676336,-0.775008,-1.459953,0.057266,0.006691,0.079715,1.000000,0.000011,0.000027,0.000004,-1.000000,0.000132,-0.000291,0.000442,-0.015121,0.033310,-0.050625,0.999999,-0.000884,-0.000581,0.000883,1.000000,-0.000264,0.000582,0.000263,1.000000
08914,5.718301,0.651149,7.943501,0.001597,-0.010518,-0.003404,-0.001695,0.005407,0.003164,0.675384,-0.790174,-1.457373,0.057185,0.006513,0.079433,1.000000,-0.000008,0.000027,0.000016,-1.000000,0.000151,-0.000290,0.000452,-0.017346,0.033266,-0.051750,0.999999,-0.000903,-0.000581,0.000903,1.000000,-0.000303,0.000581,0.000302,1.000000
08915,5.717870,0.651103,7.943814,0.001099,-0.010508,-0.003403,0.003671,0.005793,0.001197,0.683223,-0.777905,-1.462847,0.057181,0.006510,0.079437,1.000000,0.000018,0.000029,0.000006,-1.000000,0.000142,-0.000293,0.000446,-0.016254,0.033609,-0.051126,0.999999,-0.000892,-0.000587,0.000892,1.000000,-0.000284,0.000587,0.000283,1.000000
08916,5.750632,0.652223,7.934474,0.033079,-0.008757,0.008202,0.001879,0.004241,0.002742,0.685403,-0.767484,-1.459604,0.057508,0.006522,0.079344,1.000000,0.000009,0.000021,0.000014,-1.000000,0.000141,-0.000288,0.000437,-0.016209,0.033045,-0.050066,0.999999,-0.000874,-0.000577,0.000874,1.000000,-0.000283,0.000577,0.000282,1.000000
08917,5.704376,0.659618,7.963407,-0.021689,-0.003660,0.005172,0.001314,0.006044,0.003796,0.682112,-0.777073,-1.465067,0.057046,0.006597,0.079632,1.000000,0.000007,0.000030,0.000019,-1.000000,0.000149,-0.000292,0.000428,-0.017087,0.033407,-0.049015,0.999999,-0.000855,-0.000583,0.000855,1.000000,-0.000298,0.000583,0.000298,1.000000
08918,5.712597,0.671994,7.932617,0.002278,0.011284,-0.014135,0.002306,0.003957,0.001284,0.679196,-0.772410,-1.467284,0.057127,0.006719,0.079325,1.000000,0.000012,0.000020,0.000006,-1.000000,0.000147,-0.000287,0.000443,-0.016819,0.032828,-0.050748,0.999999,-0.000886,-0.000573,0.000886,1.000000,-0.000294,0.000573,0.000293,1.000000
08919,5.724052,0.669211,7.973368,-0.011998,0.005054,0.025353,0.002167,0.005475,0.000881,0.685273,-0.784191,-1.459005,0.057243,0.006692,0.079732,1.000000,0.000011,0.000027,0.000004,-1.000000,0.000142,-0.000288,0.000443,-0.016313,0.033005,-0.050786,0.999999,-0.000886,-0.000576,0.000886,1.000000,-0.000285,0.000576,0.000284,1.000000
08920,5.723660,0.669430,7.973631,-0.012484,0.005065,0.025353,0.005314,0.004593,0.001917,0.674685,-0.774459,-1.465607,0.057238,0.006693,0.079735,1.000000,0.000027,0.000023,0.000010,-1.000000,0.000128,-0.000285,0.000438,-0.014668,0.032706,-0.050164,0.999999,-0.000876,-0.000571,0.000875,1.000000,-0.000256,0.000571,0.000256,1.000000
08921,5.743816,0.679114,7.983242,-0.002319,0.013731,0.045537,0.002444,0.002439,0.001687,0.682460,-0.777461,-1.455506,0.057439,0.006791,0.079832,1.000000,0.000012,0.000012,0.000008,-1.000000,0.000124,-0.000272,0.000435,-0.014218,0.031111,-0.049853,0.999999,-0.000870,-0.000543,0.000870,1.000000,-0.000248,0.000543,0.000248,1.000000
08922,5.739926,0.640432,7.967009,0.005671,-0.023549,0.027513,0.002168,0.005476,0.000880,0.677101,-0.783768,-1.453067,0.057401,0.006404,0.079669,1.000000,0.000011,0.000027,0.000004,-1.000000,0.000120,-0.000273,0.000440,-0.013762,0.031274,-0.050428,0.999999,-0.000880,-0.000546,0.000880,1.000000,-0.000240,0.000546,0.000240,1.000000
08923,5.726886,0.648954,7.986266,-0.016632,-0.016662,0.036082,0.002017,0.002723,0.003145,0.684878,-0.780988,-1.455943,0.057270,0.006490,0.079862,1.000000,0.000010,0.000014,0.000016,-1.000000,0.000122,-0.000260,0.000433,-0.014003,0.029771,-0.049572,0.999999,-0.000865,-0.000520,0.000865,1.000000,-0.000244,0.000520,0.000244,1.000000
08924,5.710639,0.672684,7.933969,-0.000658,0.011301,-0.014135,0.001741,0.005760,0.002338,0.677363,-0.772918,-1.464732,0.057109,0.006727,0.079338,1.000000,0.000009,0.000029,0.000012,-1.000000,0.000121,-0.000264,0.000429,-0.013872,0.030244,-0.049204,0.999999,-0.000859,-0.000528,0.000859,1.000000,-0.000242,0.000528,0.000242,1.000000
08925,5.714372,0.651840,7.946271,-0.003805,-0.010457,-0.003404,0.001879,0.004241,0.002742,0.680881,-0.785733,-1.457492,0.057145,0.006518,0.079462,1.000000,0.000009,0.000021,0.000014,-1.000000,0.000123,-0.000259,0.000423,-0.014086,0.029628,-0.048523,1.000000,-0.000847,-0.000517,0.000847,1.000000,-0.000246,0.000517,0.000245,1.000000
08926,5.721749,0.669783,7.974973,-0.015446,0.005074,0.025349,0.001879,0.004242,0.002742,0.678548,-0.776285,-1.457592,0.057219,0.006698,0.079749,1.000000,0.000009,0.000021,0.000014,-1.000000,0.000124,-0.000253,0.000419,-0.014242,0.029015,-0.048074,1.000000,-0.000839,-0.000506,0.000839,1.000000,-0.000249,0.000507,0.000248,1.000000
08927,5.746972,0.652888,7.937071,0.027662,-0.008672,0.008219,0.001366,0.001836,-0.000087,0.678879,-0.777218,-1.458053,0.057470,0.006528,0.079370,1.000000,0.000007,0.000009,-0.000000,-1.000000,0.000119,-0.000237,0.000427,-0.013686,0.027160,-0.048970,1.000000,-0.000855,-0.000474,0.000855,1.000000,-0.000239,0.000474,0.000238,1.000000
08928,5.713514,0.651995,7.946875,-0.005292,-0.010441,-0.003405,0.003245,0.006078,0.002655,0.674646,-0.778676,-1.468482,0.057137,0.006519,0.079467,1.000000,0.000016,0.000030,0.000013,-1.000000,0.000116,-0.000241,0.000421,-0.013254,0.027638,-0.048245,1.000000,-0.000842,-0.000482,0.000842,1.000000,-0.000231,0.000483,0.000231,1.000000
08929,5.709147,0.672825,7.935030,-0.003135,0.011337,-0.014135,0.000650,0.000887,0.003232,0.678835,-0.777681,-1.469293,0.057092,0.006729,0.079350,1.000000,0.000003,0.000004,0.000016,-1.000000,0.000123,-0.000219,0.000418,-0.014109,0.025082,-0.047878,1.000000,-0.000836,-0.000438,0.000836,1.000000,-0.000246,0.000438,0.000246,1.000000
08930,5.733384,0.661349,7.956724,0.004331,-0.001743,0.016784,0.000099,0.006961,0.001617,0.675732,-0.777562,-1.462460,0.057337,0.006614,0.079565,1.000000,0.000000,0.000035,0.000008,-1.000000,0.000131,-0.000226,0.000421,-0.015002,0.025852,-0.048242,1.000000,-0.000842,-0.000451,0.000842,1.000000,-0.000262,0.000451,0.000261,1.000000
08931,5.725321,0.643345,7.928523,0.014981,-0.017265,-0.011965,0.002017,0.002723,0.003145,0.674005,-0.780259,-1.460056,0.057254,0.006434,0.079285,1.000000,0.000010,0.000014,0.000016,-1.000000,0.000133,-0.000213,0.000414,-0.015243,0.024349,-0.047387,1.000000,-0.000827,-0.000425,0.000827,1.000000,-0.000266,0.000425,0.000266,1.000000
08932,5.720896,0.664179,7.916722,0.017117,0.004507,-0.022695,0.001741,0.005760,0.002338,0.674954,-0.781821,-1.458028,0.057211,0.006642,0.079166,1.000000,0.000009,0.000029,0.000012,-1.000000,0.000134,-0.000214,0.000406,-0.015396,0.024479,-0.046500,1.000000,-0.000812,-0.000427,0.000811,1.000000,-0.000269,0.000427,0.000268,1.000000
08933,5.711897,0.651871,7.948047,-0.007844,-0.010369,-0.003406,0.002306,0.003957,0.001284,0.673009,-0.774785,-1.462018,0.057121,0.006518,0.079479,1.000000,0.000012,0.000020,0.000006,-1.000000,0.000130,-0.000207,0.000405,-0.014917,0.023770,-0.046363,1.000000,-0.000809,-0.000415,0.000809,1.000000,-0.000260,0.000415,0.000260,1.000000
08934,5.707437,0.672779,7.936265,-0.005707,0.011403,-0.014137,0.000664,0.005158,0.000563,0.678008,-0.784049,-1.462700,0.057076,0.006728,0.079361,1.000000,0.000003,0.000026,0.000003,-1.000000,0.000130,-0.000206,0.000407,-0.014962,0.023634,-0.046634,1.000000,-0.000814,-0.000412,0.000814,1.000000,-0.000261,0.000413,0.000261,1.000000
08935,5.723855,0.643362,7.929580,0.012941,-0.017237,-0.011962,-0.000190,0.005727,0.003478,0.667027,-0.781153,-1.459128,0.057241,0.006435,0.079294,1.000000,-0.000001,0.000029,0.000017,-1.000000,0.000143,-0.000208,0.000404,-0.016426,0.023830,-0.046246,1.000000,-0.000807,-0.000416,0.000807,1.000000,-0.000287,0.000416,0.000286,1.000000
08936,5.710696,0.651685,7.948926,-0.009396,-0.010372,-0.003408,0.000237,0.005443,0.002021,0.685616,-0.775066,-1.463249,0.057109,0.006517,0.079488,1.000000,0.000001,0.000027,0.000010,-1.000000,0.000149,-0.000207,0.000395,-0.017033,0.023738,-0.045272,1.000000,-0.000790,-0.000414,0.000790,1.000000,-0.000297,0.000415,0.000297,1.000000
08937,5.730683,0.661390,7.958666,0.000756,-0.001711,0.016785,0.006032,0.005543,-0.001401,0.673027,-0.775699,-1.455765,0.057309,0.006611,0.079585,1.000000,0.000030,0.000028,-0.000007,-1.000000,0.000122,-0.000210,0.000393,-0.013970,0.024062,-0.045074,1.000000,-0.000787,-0.000420,0.000787,1.000000,-0.000244,0.000420,0.000243,1.000000
08938,5.743022,0.653237,7.939901,0.022072,-0.008577,0.008233,0.003383,0.004560,0.003058,0.673585,-0.772412,-1.464075,0.057432,0.006532,0.079398,1.000000,0.000017,0.000023,0.000015,-1.000000,0.000119,-0.000206,0.000388,-0.013642,0.023656,-0.044518,1.000000,-0.000777,-0.000413,0.000777,1.000000,-0.000238,0.000413,0.000238,1.000000
08939,5.709491,0.652301,7.949741,-0.010883,-0.010333,-0.003409,0.000664,0.005158,0.000563,0.679449,-0.770851,-1.457591,0.057097,0.006523,0.079496,1.000000,0.000003,0.000026,0.000003,-1.000000,0.000120,-0.000207,0.000395,-0.013721,0.023667,-0.045219,1.000000,-0.000789,-0.000413,0.000789,1.000000,-0.000239,0.000413,0.000239,1.000000
08940,5.712774,0.691098,7.966393,-0.019889,0.027016,0.014605,0.002017,0.002724,0.003145,0.680533,-0.779203,-1.463705,0.057129,0.006911,0.079663,1.000000,0.000010,0.000014,0.000016,-1.000000,0.000124,-0.000193,0.000394,-0.014174,0.022075,-0.045180,1.000000,-0.000789,-0.000385,0.000788,1.000000,-0.000247,0.000385,0.000247,1.000000
08941,5.709005,0.652231,7.950096,-0.011895,-0.010276,-0.003410,0.000512,0.002406,0.002828,0.677659,-0.771279,-1.452587,0.057091,0.006523,0.079500,1.000000,0.000003,0.000012,0.000014,-1.000000,0.000131,-0.000178,0.000393,-0.015001,0.020406,-0.044987,1.000000,-0.000785,-0.000356,0.000785,1.000000,-0.000262,0.000356,0.000262,1.000000
08942,5.700570,0.693741,7.926208,-0.007045,0.033272,-0.024869,-0.000053,0.004209,0.003882,0.680719,-0.783380,-1.459779,0.057007,0.006939,0.079261,1.000000,-0.000000,0.000021,0.000019,-1.000000,0.000144,-0.000173,0.000394,-0.016508,0.019778,-0.045155,1.000000,-0.000788,-0.000345,0.000788,1.000000,-0.000288,0.000345,0.000288,1.000000
08943,5.741652,0.652916,7.940918,0.019573,-0.008490,0.008239,0.003094,0.003326,0.004920,0.680757,-0.783848,-1.456483,0.057418,0.006529,0.079408,1.000000,0.000015,0.000017,0.000025,-1.000000,0.000147,-0.000162,0.000376,-0.016856,0.018535,-0.043094,1.000000,-0.000752,-0.000324,0.000752,1.000000,-0.000294,0.000324,0.000294,1.000000
08944,5.728822,0.661192,7.960023,-0.002708,-0.001642,0.016785,-0.000068,-0.000062,0.006551,0.680991,-0.778555,-1.458484,0.057288,0.006614,0.079600,1.000000,-0.000000,-0.000000,0.000033,-1.000000,0.000164,-0.000135,0.000362,-0.018838,0.015426,-0.041489,1.000000,-0.000724,-0.000269,0.000724,1.000000,-0.000329,0.000269,0.000329,1.000000
08945,5.757720,0.682788,7.938555,0.031918,0.021896,0.017710,-0.000839,0.004840,0.000246,0.680025,-0.778779,-1.455883,0.057579,0.006828,0.079384,1.000000,-0.000004,0.000024,0.000001,-1.000000,0.000170,-0.000133,0.000374,-0.019503,0.015270,-0.042851,1.000000,-0.000748,-0.000267,0.000748,1.000000,-0.000340,0.000267,0.000340,1.000000
08946,5.703778,0.672339,7.938932,-0.011653,0.011476,-0.014142,0.003384,0.004560,0.003059,0.675661,-0.781982,-1.462362,0.057039,0.006723,0.079388,1.000000,0.000017,0.000023,0.000015,-1.000000,0.000166,-0.000131,0.000367,-0.019000,0.014961,-0.042057,1.000000,-0.000734,-0.000261,0.000734,1.000000,-0.000332,0.000261,0.000331,1.000000
08947,5.723869,0.681852,7.948618,-0.001506,0.020134,0.006056,0.001879,0.004242,0.002741,0.680725,-0.773751,-1.457275,0.057240,0.006819,0.079485,1.000000,0.000009,0.000021,0.000014,-1.000000,0.000168,-0.000125,0.000361,-0.019214,0.014345,-0.041377,1.000000,-0.000722,-0.000250,0.000722,1.000000,-0.000335,0.000251,0.000335,1.000000
08948,5.707231,0.651483,7.951430,-0.015320,-0.010277,-0.003415,0.000375,0.003924,0.002424,0.675780,-0.775453,-1.464621,0.057074,0.006515,0.079513,1.000000,0.000002,0.000020,0.000012,-1.000000,0.000174,-0.000119,0.000363,-0.019972,0.013573,-0.041650,1.000000,-0.000727,-0.000237,0.000727,1.000000,-0.000349,0.000237,0.000348,1.000000
08949,5.723316,0.681729,7.949027,-0.002500,0.020147,0.006056,0.002017,0.002724,0.003145,0.670329,-0.787032,-1.460378,0.057234,0.006817,0.079490,1.000000,0.000010,0.000014,0.000016,-1.000000,0.000176,-0.000105,0.000356,-0.020214,0.012071,-0.040794,1.000000,-0.000712,-0.000211,0.000712,1.000000,-0.000353,0.000211,0.000353,1.000000
08950,5.714400,0.669304,7.980281,-0.027519,0.005266,0.025322,0.001452,0.004527,0.004199,0.676790,-0.778088,-1.464771,0.057146,0.006694,0.079802,1.000000,0.000007,0.000023,0.000021,-1.000000,0.000183,-0.000099,0.000338,-0.021028,0.011351,-0.038722,1.000000,-0.000676,-0.000198,0.000676,1.000000,-0.000367,0.000198,0.000367,1.000000
08951,5.755828,0.682407,7.939960,0.028920,0.021907,0.017719,-0.000617,0.006013,0.004935,0.682967,-0.779366,-1.459561,0.057560,0.006826,0.079398,1.000000,-0.000003,0.000030,0.000025,-1.000000,0.000202,-0.000102,0.000330,-0.023183,0.011642,-0.037790,1.000000,-0.000660,-0.000203,0.000659,1.000000,-0.000405,0.000203,0.000404,1.000000
08952,5.713509,0.668978,7.980946,-0.028511,0.005283,0.025319,0.002033,0.006995,0.000476,0.678107,-0.783989,-1.459908,0.057138,0.006689,0.079808,1.000000,0.000010,0.000035,0.000002,-1.000000,0.000197,-0.000111,0.000336,-0.022615,0.012743,-0.038488,1.000000,-0.000672,-0.000222,0.000672,1.000000,-0.000395,0.000223,0.000395,1.000000
08953,5.751344,0.643390,7.924193,0.036421,-0.015385,-0.000288,0.000734,0.003578,0.007517,0.673625,-0.778496,-1.457434,0.057515,0.006436,0.079241,1.000000,0.000004,0.000018,0.000038,-1.000000,0.000218,-0.000101,0.000314,-0.024933,0.011521,-0.036001,1.000000,-0.000628,-0.000201,0.000628,1.000000,-0.000435,0.000201,0.000435,1.000000
08954,5.700989,0.671417,7.941013,-0.015659,0.011501,-0.014148,-0.002908,0.006327,0.000981,0.681842,-0.780034,-1.461343,0.057012,0.006716,0.079408,1.000000,-0.000015,0.000032,0.000005,-1.000000,0.000233,-0.000106,0.000325,-0.026669,0.012148,-0.037233,1.000000,-0.000650,-0.000212,0.000650,1.000000,-0.000465,0.000212,0.000465,1.000000
08955,5.725082,0.659893,7.962820,-0.008203,-0.001609,0.016782,0.001880,0.004242,0.002741,0.674526,-0.777603,-1.459107,0.057252,0.006599,0.079627,1.000000,0.000009,0.000021,0.000014,-1.000000,0.000235,-0.000101,0.000319,-0.026882,0.011532,-0.036552,1.000000,-0.000638,-0.000201,0.000638,1.000000,-0.000469,0.000202,0.000469,1.000000
08956,5.704202,0.650426,7.953690,-0.019335,-0.010256,-0.003422,0.002683,0.007882,0.003708,0.666702,-0.781252,-1.468721,0.057045,0.006504,0.079535,1.000000,0.000013,0.000039,0.000019,-1.000000,0.000236,-0.000113,0.000307,-0.027074,0.012963,-0.035215,1.000000,-0.000615,-0.000226,0.000615,1.000000,-0.000473,0.000227,0.000472,1.000000
08957,5.728664,0.693017,7.920452,0.017983,0.035037,-0.013204,0.002392,0.006649,0.005569,0.666285,-0.777300,-1.462280,0.057289,0.006931,0.079203,1.000000,0.000012,0.000033,0.000028,-1.000000,0.000245,-0.000119,0.000288,-0.028058,0.013587,-0.032959,1.000000,-0.000575,-0.000237,0.000575,1.000000,-0.000490,0.000237,0.000490,1.000000
08958,5.736359,0.651331,7.944872,0.012035,-0.008476,0.008251,0.002171,0.005476,0.000880,0.682575,-0.779081,-1.464036,0.057366,0.006513,0.079447,1.000000,0.000011,0.000027,0.000004,-1.000000,0.000241,-0.000116,0.000274,-0.027603,0.013296,-0.031453,1.000000,-0.000549,-0.000232,0.000549,1.000000,-0.000482,0.000232,0.000482,1.000000
08959,5.698749,0.671318,7.942629,-0.018223,0.011550,-0.014152,0.002308,0.003958,0.001284,0.684230,-0.780683,-1.460901,0.056989,0.006713,0.079425,1.000000,0.000012,0.000020,0.000006,-1.000000,0.000237,-0.000110,0.000273,-0.027124,0.012587,-0.031316,1.000000,-0.000547,-0.000220,0.000546,1.000000,-0.000473,0.000220,0.000473,1.000000
08960,5.735505,0.651465,7.945478,0.011065,-0.008470,0.008252,-0.000035,0.008481,0.001211,0.683158,-0.781777,-1.463593,0.057358,0.006515,0.079452,1.000000,-0.000000,0.000042,0.000006,-1.000000,0.000242,-0.000128,0.000285,-0.027758,0.014627,-0.032652,1.000000,-0.000570,-0.000255,0.000570,1.000000,-0.000484,0.000256,0.000484,1.000000
08961,5.735014,0.651593,7.945822,0.010566,-0.008460,0.008253,0.004240,0.003990,0.000145,0.667030,-0.780868,-1.463318,0.057352,0.006514,0.079457,1.000000,0.000021,0.000020,0.000001,-1.000000,0.000227,-0.000122,0.000283,-0.026001,0.013991,-0.032396,1.000000,-0.000565,-0.000244,0.000565,1.000000,-0.000454,0.000244,0.000454,1.000000
08962,5.710072,0.663194,7.924615,0.002104,0.004657,-0.022680,0.003111,0.007598,0.002250,0.681328,-0.788022,-1.463138,0.057104,0.006631,0.079244,1.000000,0.000016,0.000038,0.000011,-1.000000,0.000222,-0.000133,0.000270,-0.025488,0.015181,-0.030892,1.000000,-0.000539,-0.000265,0.000539,1.000000,-0.000445,0.000265,0.000445,1.000000
08963,5.708621,0.668872,7.984452,-0.034080,0.005340,0.025301,0.000803,0.003640,0.000966,0.676385,-0.777319,-1.458347,0.057088,0.006689,0.079844,1.000000,0.000004,0.000018,0.000005,-1.000000,0.000223,-0.000125,0.000274,-0.025594,0.014306,-0.031418,1.000000,-0.000548,-0.000250,0.000548,1.000000,-0.000447,0.000250,0.000447,1.000000
08964,5.733769,0.651945,7.946691,0.009055,-0.008477,0.008254,0.002171,0.005476,0.000880,0.673833,-0.776062,-1.460653,0.057340,0.006519,0.079465,1.000000,0.000011,0.000027,0.000004,-1.000000,0.000217,-0.000127,0.000273,-0.024896,0.014529,-0.031303,1.000000,-0.000546,-0.000254,0.000546,1.000000,-0.000435,0.000254,0.000434,1.000000
08965,5.742012,0.664461,7.915941,0.033064,0.006400,-0.010993,0.003676,0.005794,0.001198,0.671478,-0.778008,-1.466164,0.057422,0.006643,0.079158,1.000000,0.000018,0.000029,0.000006,-1.000000,0.000208,-0.000130,0.000268,-0.023802,0.014872,-0.030678,1.000000,-0.000535,-0.000260,0.000535,1.000000,-0.000415,0.000260,0.000415,1.000000
08966,5.720088,0.660803,7.966333,-0.013795,-0.001545,0.016776,0.000958,0.006393,-0.001300,0.681061,-0.772917,-1.465695,0.057203,0.006607,0.079662,1.000000,0.000005,0.000032,-0.000006,-1.000000,0.000203,-0.000135,0.000278,-0.023236,0.015449,-0.031811,1.000000,-0.000555,-0.000270,0.000555,1.000000,-0.000406,0.000270,0.000405,1.000000
08967,5.715466,0.681777,7.954669,-0.011599,0.020231,0.006049,0.003111,0.007598,0.002250,0.675768,-0.776811,-1.466278,0.057158,0.006817,0.079545,1.000000,0.000016,0.000038,0.000011,-1.000000,0.000199,-0.000146,0.000269,-0.022806,0.016773,-0.030817,1.000000,-0.000538,-0.000293,0.000538,1.000000,-0.000398,0.000293,0.000398,1.000000
08968,5.727732,0.673407,7.936009,0.009704,0.013372,-0.002470,0.001095,0.004874,-0.000895,0.683230,-0.786177,-1.463693,0.057279,0.006733,0.079359,1.000000,0.000005,0.000024,-0.000004,-1.000000,0.000195,-0.000145,0.000287,-0.022375,0.016606,-0.032853,1.000000,-0.000573,-0.000290,0.000573,1.000000,-0.000391,0.000290,0.000390,1.000000
08969,5.723637,0.634983,7.919921,0.017699,-0.023927,-0.020472,0.003611,0.007373,-0.005758,0.676241,-0.782144,-1.463169,0.057239,0.006347,0.079197,1.000000,0.000018,0.000037,-0.000029,-1.000000,0.000166,-0.000159,0.000309,-0.019040,0.018183,-0.035414,1.000000,-0.000618,-0.000317,0.000618,1.000000,-0.000332,0.000318,0.000332,1.000000
08970,5.730765,0.653315,7.948746,0.006015,-0.008406,0.008256,0.002171,0.005477,0.000880,0.678094,-0.777986,-1.465331,0.057310,0.006533,0.079486,1.000000,0.000011,0.000027,0.000004,-1.000000,0.000160,-0.000161,0.000308,-0.018343,0.018391,-0.035249,1.000000,-0.000615,-0.000321,0.000615,1.000000,-0.000320,0.000321,0.000320,1.000000
08971,5.743042,0.645003,7.930081,0.027332,-0.015297,-0.000258,0.002463,0.006710,-0.000982,0.670780,-0.778232,-1.459751,0.057433,0.006449,0.079299,1.000000,0.000012,0.000034,-0.000005,-1.000000,0.000149,-0.000169,0.000314,-0.017114,0.019362,-0.036004,1.000000,-0.000628,-0.000338,0.000628,1.000000,-0.000299,0.000338,0.000298,1.000000
08972,5.705208,0.665191,7.927950,-0.002930,0.004741,-0.022680,0.002755,0.007944,-0.002844,0.670376,-0.776103,-1.462536,0.057055,0.006650,0.079277,1.000000,0.000014,0.000040,-0.000014,-1.000000,0.000132,-0.000183,0.000325,-0.015185,0.020972,-0.037288,1.000000,-0.000651,-0.000366,0.000651,1.000000,-0.000265,0.000366,0.000265,1.000000
08973,5.762273,0.655331,7.940344,0.036930,-0.006633,0.019957,0.005253,0.006173,-0.005035,0.682837,-0.779629,-1.459380,0.057625,0.006550,0.079402,1.000000,0.000026,0.000031,-0.000025,-1.000000,0.000098,-0.000191,0.000340,-0.011293,0.021829,-0.039011,1.000000,-0.000681,-0.000381,0.000681,1.000000,-0.000197,0.000381,0.000197,1.000000
08974,5.683149,0.716397,7.923580,-0.020343,0.055195,-0.035619,0.001251,0.007626,-0.003162,0.671641,-0.781699,-1.462205,0.056835,0.007163,0.079234,1.000000,0.000006,0.000038,-0.000016,-1.000000,0.000087,-0.000204,0.000360,-0.009924,0.023368,-0.041283,1.000000,-0.000721,-0.000408,0.000720,1.000000,-0.000173,0.000408,0.000173,1.000000
08975,5.727829,0.655253,7.950702,0.003486,-0.008352,0.008258,0.003047,0.009178,-0.004706,0.680142,-0.773874,-1.452278,0.057282,0.006550,0.079504,1.000000,0.000015,0.000046,-0.000024,-1.000000,0.000063,-0.000226,0.000379,-0.007252,0.025925,-0.043474,1.000000,-0.000759,-0.000452,0.000759,1.000000,-0.000127,0.000453,0.000126,1.000000
08976,5.727105,0.655692,7.951187,0.002983,-0.008354,0.008258,0.003831,0.008548,-0.001069,0.671927,-0.778193,-1.455907,0.057274,0.006555,0.079510,1.000000,0.000019,0.000043,-0.000005,-1.000000,0.000047,-0.000244,0.000382,-0.005340,0.027924,-0.043762,1.000000,-0.000764,-0.000487,0.000764,1.000000,-0.000093,0.000487,0.000093,1.000000
08977,5.709698,0.685154,7.958520,-0.016626,0.020326,0.006042,0.001313,0.006048,0.003793,0.682420,-0.780339,-1.460054,0.057099,0.006852,0.079584,1.000000,0.000007,0.000030,0.000019,-1.000000,0.000054,-0.000247,0.000373,-0.006217,0.028289,-0.042713,1.000000,-0.000745,-0.000494,0.000745,1.000000,-0.000109,0.000494,0.000108,1.000000
08978,5.729493,0.694655,7.968441,-0.006506,0.028959,0.026256,0.000686,0.009431,-0.002110,0.679830,-0.777156,-1.461888,0.057299,0.006946,0.079682,1.000000,0.000003,0.000047,-0.000011,-1.000000,0.000047,-0.000269,0.000388,-0.005412,0.030872,-0.044488,1.000000,-0.000776,-0.000539,0.000776,1.000000,-0.000094,0.000539,0.000094,1.000000
08979,5.721142,0.676845,7.940470,0.004196,0.013424,-0.002466,0.001898,0.008515,0.000070,0.685400,-0.782731,-1.458764,0.057215,0.006768,0.079402,1.000000,0.000009,0.000043,0.000000,-1.000000,0.000042,-0.000286,0.000392,-0.004846,0.032823,-0.044874,1.000000,-0.000783,-0.000573,0.000783,1.000000,-0.000085,0.000573,0.000084,1.000000
08980,5.704258,0.646624,7.943424,-0.009602,-0.016987,-0.011958,0.000667,0.005160,0.000561,0.672340,-0.779369,-1.452715,0.057045,0.006466,0.079433,1.000000,0.000003,0.000026,0.000003,-1.000000,0.000042,-0.000288,0.000403,-0.004830,0.032977,-0.046225,1.000000,-0.000807,-0.000576,0.000807,1.000000,-0.000084,0.000576,0.000084,1.000000
