// General information: 
//  MT Manager version: 2020.5.0 
//  XDA version: 2020.5.0 build 5678 rev 108182 built on 2021-02-04
// Device information: 
//  DeviceId: 00B46A01
//  ProductCode: MTW2-3A7G6
//  Firmware Version: 4.4.0
//  Hardware Version: 2.0.0
// Device settings: 
//  Filter Profile: human(46.1)
//  Option Flags: Orientation Smoother Disabled, Position/Velocity Smoother Disabled, Continuous Zero Rotation Update Disabled, AHS Disabled, ICC Disabled
// Coordinate system: ENU
PacketCounter,Acc_X,Acc_Y,Acc_Z,FreeAcc_E,FreeAcc_N,FreeAcc_U,Gyr_X,Gyr_Y,Gyr_Z,Mag_X,Mag_Y,Mag_Z,VelInc_X,VelInc_Y,VelInc_Z,OriInc_q0,OriInc_q1,OriInc_q2,OriInc_q3,Quat_q0,Quat_q1,Quat_q2,Quat_q3,Roll,Pitch,Yaw,Mat[1][1],Mat[2][1],Mat[3][1],Mat[1][2],Mat[2][2],Mat[3][2],Mat[1][3],Mat[2][3],Mat[3][3]
08622,9.740743,-0.290167,-0.779352,-0.056183,-0.029328,-0.036714,-0.014544,0.001506,-0.001386,0.480919,-0.021113,-0.783753,0.097407,-0.002903,-0.007794,1.000000,-0.000073,0.000008,-0.000007,-0.999997,-0.000611,-0.000251,0.002425,0.069928,0.028911,-0.277873,0.999988,-0.004850,-0.000505,0.004850,0.999987,0.001220,0.000499,-0.001223,0.999999
08623,9.740161,-0.342921,-0.766244,-0.063543,0.025005,-0.036656,-0.014295,0.004417,-0.002412,0.481906,-0.032676,-0.779422,0.097401,-0.003431,-0.007664,1.000000,-0.000071,0.000022,-0.000012,-0.999997,-0.000590,-0.000225,0.002519,0.067552,0.025975,-0.288649,0.999987,-0.005038,-0.000453,0.005038,0.999987,0.001179,0.000447,-0.001181,0.999999
08624,9.710272,-0.328615,-0.755847,-0.051658,0.015959,-0.067650,-0.004440,0.004208,-0.002301,0.483119,-0.034401,-0.776090,0.097103,-0.003287,-0.007560,1.000000,-0.000022,0.000021,-0.000012,-0.999996,-0.000570,-0.000195,0.002584,0.065217,0.022556,-0.296074,0.999987,-0.005167,-0.000394,0.005168,0.999986,0.001138,0.000388,-0.001140,0.999999
08625,9.752935,-0.343992,-0.725481,-0.025827,0.041696,-0.026882,-0.006314,-0.002191,-0.001920,0.488483,-0.033468,-0.780187,0.097529,-0.003441,-0.007254,1.000000,-0.000032,-0.000011,-0.000010,-0.999996,-0.000542,-0.000201,0.002637,0.062074,0.023237,-0.302198,0.999986,-0.005274,-0.000406,0.005275,0.999986,0.001083,0.000400,-0.001086,0.999999
08626,9.729766,-0.345110,-0.733257,-0.035257,0.040668,-0.049378,-0.003901,-0.002257,-0.006423,0.495596,-0.029001,-0.774382,0.097298,-0.003454,-0.007331,1.000000,-0.000020,-0.000011,-0.000032,-0.999996,-0.000495,-0.000199,0.002686,0.056709,0.022920,-0.307770,0.999985,-0.005372,-0.000400,0.005372,0.999985,0.000990,0.000395,-0.000992,0.999999
08627,9.733441,-0.325900,-0.748787,-0.042304,0.017910,-0.045156,0.002040,-0.004432,-0.002966,0.489245,-0.030885,-0.777554,0.097335,-0.003260,-0.007486,1.000000,0.000010,-0.000022,-0.000015,-0.999996,-0.000462,-0.000213,0.002697,0.052919,0.024568,-0.309040,0.999985,-0.005394,-0.000429,0.005394,0.999985,0.000924,0.000424,-0.000926,0.999999
08628,9.767018,-0.320862,-0.774594,-0.061268,0.004553,-0.009942,0.002020,-0.007867,-0.003356,0.490445,-0.030980,-0.776179,0.097670,-0.003210,-0.007742,1.000000,0.000010,-0.000039,-0.000017,-0.999996,-0.000420,-0.000247,0.002730,0.048000,0.028449,-0.312855,0.999985,-0.005460,-0.000497,0.005461,0.999985,0.000838,0.000492,-0.000840,1.000000
08629,9.740118,-0.340916,-0.767675,-0.063647,0.026531,-0.036661,0.006833,-0.007709,-0.002593,0.487032,-0.030243,-0.775664,0.097401,-0.003410,-0.007673,1.000000,0.000034,-0.000039,-0.000013,-0.999996,-0.000384,-0.000278,0.002717,0.043936,0.031919,-0.311347,0.999985,-0.005434,-0.000557,0.005434,0.999985,0.000767,0.000553,-0.000770,1.000000
08630,9.753388,-0.289319,-0.741034,-0.018455,-0.011176,-0.026935,0.008314,-0.009112,-0.001826,0.490684,-0.030436,-0.773749,0.097534,-0.002894,-0.007406,1.000000,0.000042,-0.000046,-0.000009,-0.999996,-0.000349,-0.000318,0.002714,0.039920,0.036508,-0.311000,0.999985,-0.005428,-0.000637,0.005428,0.999985,0.000697,0.000633,-0.000700,1.000000
08631,9.745971,-0.326824,-0.711434,-0.004385,0.035044,-0.035384,0.007858,-0.008062,0.001004,0.491816,-0.025815,-0.772859,0.097460,-0.003267,-0.007111,1.000000,0.000039,-0.000040,0.000005,-0.999996,-0.000330,-0.000356,0.002697,0.037738,0.040925,-0.309051,0.999985,-0.005394,-0.000714,0.005394,0.999985,0.000659,0.000711,-0.000662,1.000000
08632,9.749599,-0.308187,-0.727261,-0.011356,0.012338,-0.031160,0.008106,-0.005151,-0.000022,0.491673,-0.034341,-0.787542,0.097496,-0.003082,-0.007270,1.000000,0.000041,-0.000026,-0.000000,-0.999996,-0.000309,-0.000384,0.002703,0.035340,0.044064,-0.309758,0.999985,-0.005406,-0.000769,0.005407,0.999985,0.000617,0.000766,-0.000621,1.000000
08633,9.772709,-0.306588,-0.720563,-0.001963,0.013826,-0.008665,0.009899,-0.012494,-0.001961,0.484760,-0.033048,-0.781852,0.097728,-0.003066,-0.007200,1.000000,0.000049,-0.000062,-0.000010,-0.999996,-0.000269,-0.000437,0.002674,0.030745,0.050216,-0.306445,0.999985,-0.005348,-0.000876,0.005349,0.999986,0.000537,0.000874,-0.000541,0.999999
08634,9.742124,-0.345627,-0.698572,0.002672,0.058777,-0.039613,0.007983,-0.006606,0.000491,0.480972,-0.030449,-0.770042,0.097421,-0.003456,-0.006983,1.000000,0.000040,-0.000033,0.000002,-0.999996,-0.000251,-0.000466,0.002668,0.028674,0.053513,-0.305708,0.999985,-0.005336,-0.000934,0.005336,0.999986,0.000500,0.000931,-0.000505,0.999999
08635,9.745755,-0.326982,-0.714321,-0.004386,0.036023,-0.035387,0.003065,-0.004785,0.000632,0.500500,-0.034731,-0.781138,0.097458,-0.003269,-0.007141,1.000000,0.000015,-0.000024,0.000003,-0.999996,-0.000235,-0.000489,0.002675,0.026766,0.056109,-0.306538,0.999985,-0.005350,-0.000979,0.005351,0.999986,0.000467,0.000977,-0.000472,0.999999
08636,9.765805,-0.291075,-0.705041,0.019417,0.006395,-0.017161,0.003397,-0.007290,-0.001685,0.491762,-0.033523,-0.778977,0.097658,-0.002911,-0.007047,1.000000,0.000017,-0.000036,-0.000008,-0.999996,-0.000203,-0.000522,0.002694,0.023129,0.059895,-0.308710,0.999985,-0.005388,-0.001045,0.005388,0.999985,0.000404,0.001043,-0.000409,0.999999
08637,9.753013,-0.289397,-0.745922,-0.018451,-0.009486,-0.026933,-0.001748,-0.004943,-0.000130,0.490225,-0.031524,-0.778366,0.097530,-0.002894,-0.007457,1.000000,-0.000009,-0.000025,-0.000001,-0.999996,-0.000181,-0.000544,0.002725,0.020562,0.062415,-0.312255,0.999985,-0.005450,-0.001089,0.005450,0.999985,0.000359,0.001087,-0.000365,0.999999
08638,9.786570,-0.284693,-0.771637,-0.037472,-0.022859,0.008285,0.003066,-0.004784,0.000631,0.489666,-0.030479,-0.776852,0.097866,-0.002847,-0.007714,1.000000,0.000015,-0.000024,0.000003,-0.999996,-0.000164,-0.000569,0.002747,0.018662,0.065224,-0.314804,0.999984,-0.005494,-0.001138,0.005495,0.999985,0.000326,0.001137,-0.000332,0.999999
08639,9.768775,-0.325397,-0.708905,0.005070,0.038213,-0.012896,0.001461,-0.004837,0.000378,0.479808,-0.028543,-0.778522,0.097688,-0.003254,-0.007087,1.000000,0.000007,-0.000024,0.000002,-0.999996,-0.000146,-0.000591,0.002762,0.016534,0.067794,-0.316539,0.999984,-0.005525,-0.001183,0.005525,0.999985,0.000289,0.001182,-0.000295,0.999999
08640,9.749227,-0.308220,-0.732215,-0.011438,0.014239,-0.031162,0.006607,-0.007184,-0.001178,0.483299,-0.034175,-0.772675,0.097493,-0.003083,-0.007319,1.000000,0.000033,-0.000036,-0.000006,-0.999996,-0.000116,-0.000620,0.002766,0.013151,0.071068,-0.316920,0.999984,-0.005531,-0.001240,0.005532,0.999985,0.000230,0.001239,-0.000236,0.999999
08641,9.749196,-0.308180,-0.732641,-0.011451,0.014474,-0.031163,0.003313,-0.001874,-0.000395,0.489337,-0.026624,-0.778296,0.097492,-0.003082,-0.007326,1.000000,0.000017,-0.000009,-0.000002,-0.999996,-0.000101,-0.000627,0.002772,0.011321,0.071896,-0.317615,0.999984,-0.005543,-0.001255,0.005544,0.999985,0.000198,0.001254,-0.000205,0.999999
08642,9.772335,-0.306520,-0.725642,-0.002057,0.015981,-0.008668,0.000064,-0.008851,-0.001679,0.476939,-0.032432,-0.774377,0.097724,-0.003066,-0.007252,1.000000,0.000000,-0.000044,-0.000008,-0.999996,-0.000064,-0.000665,0.002806,0.007088,0.076168,-0.321596,0.999983,-0.005613,-0.001329,0.005613,0.999984,0.000124,0.001329,-0.000131,0.999999
08643,9.758794,-0.275366,-0.691197,0.040720,-0.000052,-0.025656,0.006276,-0.004678,0.001138,0.497395,-0.027738,-0.775259,0.097588,-0.002753,-0.006910,1.000000,0.000031,-0.000023,0.000006,-0.999996,-0.000051,-0.000688,0.002798,0.005618,0.078813,-0.320617,0.999983,-0.005596,-0.001376,0.005596,0.999984,0.000098,0.001375,-0.000106,0.999999
08644,9.769181,-0.272346,-0.724246,0.012265,-0.014648,-0.012930,0.003086,-0.001349,0.001020,0.490468,-0.019237,-0.773487,0.097692,-0.002723,-0.007242,1.000000,0.000015,-0.000007,0.000005,-0.999996,-0.000041,-0.000696,0.002821,0.004523,0.079740,-0.323234,0.999983,-0.005641,-0.001392,0.005642,0.999984,0.000079,0.001391,-0.000087,0.999999
08645,9.758747,-0.275588,-0.691774,0.040707,0.000434,-0.025656,0.001461,-0.004837,0.000378,0.491980,-0.031211,-0.774586,0.097588,-0.002756,-0.006915,1.000000,0.000007,-0.000024,0.000002,-0.999996,-0.000023,-0.000718,0.002836,0.002394,0.082310,-0.324970,0.999983,-0.005672,-0.001437,0.005672,0.999984,0.000042,0.001436,-0.000050,0.999999
08646,9.758713,-0.275599,-0.692251,0.040758,0.000741,-0.025656,-0.001748,-0.004943,-0.000129,0.485765,-0.023031,-0.778748,0.097587,-0.002756,-0.006920,1.000000,-0.000009,-0.000025,-0.000001,-0.999996,0.000003,-0.000744,0.002895,-0.000613,0.085203,-0.331760,0.999982,-0.005790,-0.001487,0.005790,0.999983,-0.000011,0.001487,0.000002,0.999999
08647,9.745915,-0.274149,-0.732877,0.002880,-0.015120,-0.035424,-0.003911,-0.001965,0.003350,0.491713,-0.030213,-0.776279,0.097459,-0.002740,-0.007328,1.000000,-0.000020,-0.000010,0.000017,-0.999995,0.000005,-0.000758,0.002939,-0.000807,0.086870,-0.336738,0.999982,-0.005877,-0.001516,0.005877,0.999983,-0.000014,0.001516,0.000005,0.999999
08648,9.722721,-0.275838,-0.740575,-0.006534,-0.016080,-0.057918,-0.004938,-0.001614,-0.000247,0.491794,-0.030303,-0.772367,0.097227,-0.002759,-0.007405,1.000000,-0.000025,-0.000008,-0.000001,-0.999995,0.000026,-0.000765,0.003009,-0.003218,0.087632,-0.344798,0.999981,-0.006018,-0.001529,0.006018,0.999982,-0.000056,0.001530,0.000047,0.999999
08649,9.779456,-0.269303,-0.758716,-0.016195,-0.028178,-0.000201,-0.006107,-0.006152,-0.003719,0.491587,-0.026903,-0.774555,0.097795,-0.002695,-0.007584,1.000000,-0.000031,-0.000031,-0.000019,-0.999995,0.000069,-0.000786,0.003060,-0.008147,0.090037,-0.350665,0.999980,-0.006120,-0.001571,0.006120,0.999981,-0.000142,0.001572,0.000133,0.999999
08650,9.772114,-0.306652,-0.728553,-0.001996,0.018053,-0.008672,-0.005269,0.000891,0.002070,0.494667,-0.026504,-0.773574,0.097721,-0.003066,-0.007286,1.000000,-0.000026,0.000004,0.000010,-0.999995,0.000073,-0.000789,0.003131,-0.008668,0.090344,-0.358809,0.999979,-0.006262,-0.001577,0.006262,0.999980,-0.000151,0.001578,0.000141,0.999999
08651,9.736158,-0.306684,-0.776398,-0.049284,0.000952,-0.040933,0.001709,-0.001927,-0.000649,0.488812,-0.028299,-0.773356,0.097362,-0.003067,-0.007763,1.000000,0.000009,-0.000010,-0.000003,-0.999995,0.000091,-0.000796,0.003145,-0.010719,0.091147,-0.360411,0.999979,-0.006290,-0.001591,0.006290,0.999980,-0.000187,0.001592,0.000177,0.999999
08652,9.775752,-0.287978,-0.744066,-0.009021,-0.004412,-0.004436,-0.001852,-0.002963,0.000773,0.482945,-0.034761,-0.766770,0.097758,-0.002879,-0.007439,1.000000,-0.000009,-0.000015,0.000004,-0.999995,0.000108,-0.000814,0.003200,-0.012647,0.093222,-0.366711,0.999978,-0.006400,-0.001627,0.006400,0.999979,-0.000221,0.001628,0.000210,0.999999
08653,9.759291,-0.305213,-0.769407,-0.039831,0.002724,-0.018438,-0.005288,-0.002544,0.001682,0.484637,-0.028059,-0.774985,0.097593,-0.003052,-0.007693,1.000000,-0.000026,-0.000013,0.000008,-0.999994,0.000119,-0.000828,0.003250,-0.013913,0.094844,-0.372397,0.999978,-0.006500,-0.001655,0.006499,0.999979,-0.000243,0.001657,0.000232,0.999999
08654,9.759254,-0.305230,-0.769869,-0.039846,0.002955,-0.018438,-0.006685,-0.006557,-0.000375,0.490426,-0.033065,-0.776912,0.097593,-0.003053,-0.007695,1.000000,-0.000033,-0.000033,-0.000002,-0.999994,0.000147,-0.000857,0.003312,-0.017139,0.098161,-0.379527,0.999977,-0.006624,-0.001713,0.006623,0.999978,-0.000299,0.001715,0.000288,0.999998
08655,9.759210,-0.305279,-0.770408,-0.039859,0.003193,-0.018439,0.001234,-0.004312,0.001792,0.490794,-0.025451,-0.780615,0.097592,-0.003052,-0.007702,1.000000,0.000006,-0.000022,0.000009,-0.999994,0.000158,-0.000880,0.003329,-0.018418,0.100749,-0.381463,0.999976,-0.006658,-0.001758,0.006657,0.999978,-0.000321,0.001761,0.000310,0.999998
08656,9.756106,-0.271141,-0.768334,-0.025544,-0.027681,-0.022690,0.004691,-0.001296,0.001272,0.494559,-0.029408,-0.782872,0.097561,-0.002711,-0.007683,1.000000,0.000023,-0.000006,0.000006,-0.999994,0.000165,-0.000888,0.003347,-0.019296,0.101732,-0.383522,0.999976,-0.006694,-0.001776,0.006693,0.999978,-0.000337,0.001778,0.000325,0.999998
08657,9.762824,-0.286861,-0.786083,-0.046946,-0.019287,-0.014199,0.001358,-0.002857,0.001279,0.485715,-0.031870,-0.773846,0.097628,-0.002868,-0.007859,1.000000,0.000007,-0.000014,0.000006,-0.999994,0.000176,-0.000903,0.003363,-0.020535,0.103436,-0.385390,0.999976,-0.006726,-0.001805,0.006726,0.999977,-0.000358,0.001808,0.000346,0.999998
08658,9.762113,-0.257373,-0.710922,0.033705,-0.019291,-0.021416,0.003313,-0.001874,-0.000396,0.495726,-0.033082,-0.776597,0.097621,-0.002574,-0.007108,1.000000,0.000017,-0.000009,-0.000002,-0.999994,0.000192,-0.000911,0.003384,-0.022390,0.104363,-0.387770,0.999975,-0.006768,-0.001821,0.006767,0.999977,-0.000391,0.001824,0.000378,0.999998
08659,9.775574,-0.288618,-0.746153,-0.009082,-0.002737,-0.004435,-0.005392,-0.000563,0.002584,0.496889,-0.024517,-0.775464,0.097756,-0.002885,-0.007461,1.000000,-0.000027,-0.000003,0.000013,-0.999994,0.000196,-0.000918,0.003434,-0.022766,0.105119,-0.393587,0.999975,-0.006869,-0.001835,0.006869,0.999976,-0.000397,0.001837,0.000385,0.999998
08660,9.752377,-0.290354,-0.753824,-0.018400,-0.003728,-0.026929,-0.005288,-0.002543,0.001682,0.496020,-0.030046,-0.777600,0.097524,-0.002903,-0.007537,1.000000,-0.000026,-0.000013,0.000008,-0.999993,0.000208,-0.000937,0.003507,-0.024176,0.107341,-0.401947,0.999974,-0.007015,-0.001873,0.007014,0.999975,-0.000422,0.001876,0.000409,0.999998
08661,9.729174,-0.292093,-0.761571,-0.027822,-0.004743,-0.049423,-0.007120,-0.002071,0.002844,0.492303,-0.027995,-0.780979,0.097292,-0.002920,-0.007615,1.000000,-0.000036,-0.000010,0.000014,-0.999993,0.000213,-0.000952,0.003567,-0.024811,0.108956,-0.408737,0.999973,-0.007134,-0.001902,0.007133,0.999974,-0.000433,0.001905,0.000419,0.999998
08662,9.775509,-0.289187,-0.746787,-0.008967,-0.001982,-0.004435,-0.007120,-0.002071,0.002844,0.493857,-0.037249,-0.784531,0.097755,-0.002891,-0.007467,1.000000,-0.000036,-0.000010,0.000014,-0.999993,0.000220,-0.000968,0.003647,-0.025566,0.110878,-0.417916,0.999972,-0.007294,-0.001935,0.007293,0.999973,-0.000446,0.001938,0.000432,0.999998
08663,9.752318,-0.290913,-0.754381,-0.018388,-0.002997,-0.026929,-0.001832,0.000472,0.001162,0.491523,-0.031301,-0.777489,0.097523,-0.002909,-0.007544,1.000000,-0.000009,0.000002,0.000006,-0.999993,0.000226,-0.000968,0.003679,-0.026315,0.110784,-0.421656,0.999971,-0.007359,-0.001934,0.007358,0.999973,-0.000459,0.001937,0.000445,0.999998
08664,9.778583,-0.323828,-0.748994,-0.023260,0.029596,-0.000189,-0.003644,0.004379,0.002714,0.494361,-0.032444,-0.780652,0.097786,-0.003237,-0.007492,1.000000,-0.000018,0.000022,0.000014,-0.999993,0.000217,-0.000953,0.003732,-0.025288,0.109091,-0.427634,0.999970,-0.007464,-0.001904,0.007463,0.999972,-0.000441,0.001907,0.000427,0.999998
08665,9.759077,-0.306886,-0.771457,-0.039772,0.005610,-0.018439,-0.002059,0.000997,0.002577,0.487443,-0.026890,-0.776921,0.097591,-0.003068,-0.007715,1.000000,-0.000010,0.000005,0.000013,-0.999992,0.000216,-0.000952,0.003766,-0.025186,0.109016,-0.431572,0.999970,-0.007532,-0.001903,0.007531,0.999972,-0.000440,0.001906,0.000425,0.999998
08666,9.762739,-0.288244,-0.786629,-0.046859,-0.017113,-0.014195,-0.001605,-0.000053,-0.000253,0.484073,-0.031095,-0.777390,0.097627,-0.002883,-0.007866,1.000000,-0.000008,-0.000000,-0.000001,-0.999992,0.000231,-0.000952,0.003813,-0.026846,0.109012,-0.436962,0.999969,-0.007626,-0.001903,0.007625,0.999971,-0.000469,0.001906,0.000454,0.999998
08667,9.759071,-0.306905,-0.771523,-0.039778,0.006097,-0.018440,-0.001501,-0.002033,-0.001155,0.490015,-0.028440,-0.778839,0.097591,-0.003070,-0.007714,1.000000,-0.000008,-0.000010,-0.000006,-0.999992,0.000252,-0.000959,0.003843,-0.029337,0.109763,-0.440375,0.999969,-0.007686,-0.001916,0.007685,0.999970,-0.000512,0.001920,0.000497,0.999998
08668,9.755999,-0.272509,-0.769206,-0.025525,-0.024803,-0.022683,0.000123,0.001455,-0.000513,0.496372,-0.029095,-0.778362,0.097560,-0.002725,-0.007693,1.000000,0.000001,0.000007,-0.000003,-0.999992,0.000264,-0.000949,0.003877,-0.030716,0.108678,-0.444342,0.999968,-0.007755,-0.001897,0.007754,0.999970,-0.000536,0.001901,0.000521,0.999998
08669,9.769487,-0.303658,-0.804081,-0.068302,-0.008215,-0.005705,0.001625,0.003488,0.000642,0.485420,-0.025160,-0.773823,0.097695,-0.003036,-0.008043,1.000000,0.000008,0.000017,0.000003,-0.999992,0.000266,-0.000934,0.003893,-0.030947,0.106868,-0.446135,0.999968,-0.007786,-0.001865,0.007785,0.999970,-0.000540,0.001869,0.000526,0.999998
08670,9.779222,-0.271035,-0.761112,-0.016109,-0.023043,-0.000188,0.001625,0.003488,0.000642,0.499477,-0.036769,-0.787669,0.097792,-0.002710,-0.007613,1.000000,0.000008,0.000017,0.000003,-0.999992,0.000270,-0.000920,0.003929,-0.031373,0.105272,-0.450235,0.999967,-0.007858,-0.001837,0.007857,0.999969,-0.000548,0.001842,0.000533,0.999998
08671,9.762803,-0.288210,-0.785847,-0.046912,-0.015878,-0.014193,0.005061,0.003068,-0.000267,0.493429,-0.034072,-0.773966,0.097628,-0.002882,-0.007860,1.000000,0.000025,0.000015,-0.000001,-0.999992,0.000276,-0.000904,0.003927,-0.032016,0.103495,-0.450021,0.999968,-0.007854,-0.001806,0.007853,0.999969,-0.000559,0.001811,0.000545,0.999998
08672,9.759158,-0.306988,-0.770391,-0.039753,0.007280,-0.018440,0.004938,0.001613,0.000246,0.490736,-0.028217,-0.785264,0.097592,-0.003070,-0.007705,1.000000,0.000025,0.000008,0.000001,-0.999992,0.000279,-0.000900,0.003936,-0.032412,0.103024,-0.451020,0.999967,-0.007872,-0.001798,0.007871,0.999969,-0.000566,0.001802,0.000552,0.999998
08673,9.745697,-0.276095,-0.735034,0.002992,-0.008844,-0.035416,0.002652,0.003135,0.004239,0.485353,-0.027065,-0.780919,0.097457,-0.002759,-0.007352,1.000000,0.000013,0.000016,0.000021,-0.999992,0.000265,-0.000893,0.003947,-0.030760,0.102161,-0.452373,0.999967,-0.007895,-0.001783,0.007894,0.999969,-0.000537,0.001787,0.000523,0.999998
08674,9.759775,-0.254349,-0.782807,-0.032650,-0.046332,-0.018430,0.003560,0.001035,-0.001422,0.487948,-0.031832,-0.772063,0.097598,-0.002544,-0.007829,1.000000,0.000018,0.000005,-0.000007,-0.999992,0.000282,-0.000882,0.003970,-0.032682,0.100978,-0.454910,0.999967,-0.007940,-0.001762,0.007939,0.999968,-0.000570,0.001767,0.000556,0.999998
08675,9.735330,-0.279532,-0.701699,0.031407,0.006439,-0.048153,0.002899,0.006045,0.003213,0.486725,-0.030967,-0.773191,0.097353,-0.002794,-0.007020,1.000000,0.000014,0.000030,0.000016,-0.999992,0.000267,-0.000859,0.003980,-0.030951,0.098349,-0.456126,0.999967,-0.007961,-0.001717,0.007960,0.999968,-0.000540,0.001721,0.000527,0.999998
08676,9.768964,-0.275028,-0.726157,0.012344,-0.006870,-0.012922,0.000060,0.010305,0.001167,0.484427,-0.027061,-0.775948,0.097689,-0.002750,-0.007267,1.000000,0.000000,0.000052,0.000006,-0.999992,0.000254,-0.000814,0.004014,-0.029465,0.093168,-0.459942,0.999966,-0.008027,-0.001626,0.008027,0.999968,-0.000514,0.001630,0.000501,0.999999
08677,9.749522,-0.257973,-0.747953,-0.004186,-0.030853,-0.031164,-0.001668,0.008798,0.001427,0.484731,-0.029057,-0.775482,0.097495,-0.002579,-0.007484,1.000000,-0.000008,0.000044,0.000007,-0.999991,0.000244,-0.000775,0.004047,-0.028313,0.088695,-0.463736,0.999966,-0.008094,-0.001548,0.008093,0.999967,-0.000494,0.001552,0.000482,0.999999
08678,9.779507,-0.272104,-0.757062,-0.016194,-0.021156,-0.000184,0.000061,0.010305,0.001167,0.486525,-0.034641,-0.784196,0.097795,-0.002720,-0.007576,1.000000,0.000000,0.000052,0.000006,-0.999991,0.000233,-0.000727,0.004084,-0.027022,0.083216,-0.468031,0.999966,-0.008169,-0.001452,0.008168,0.999967,-0.000472,0.001456,0.000460,0.999999
08679,9.755790,-0.326932,-0.750825,-0.032772,0.031951,-0.022694,0.004627,0.007553,0.002954,0.483434,-0.025472,-0.780523,0.097558,-0.003268,-0.007512,1.000000,0.000023,0.000038,0.000015,-0.999991,0.000216,-0.000697,0.004086,-0.025031,0.079730,-0.468274,0.999966,-0.008173,-0.001392,0.008172,0.999967,-0.000437,0.001395,0.000425,0.999999
08680,9.789448,-0.322464,-0.775110,-0.051923,0.018670,0.012536,0.011645,0.011604,0.001014,0.487369,-0.027297,-0.773242,0.097894,-0.003224,-0.007757,1.000000,0.000058,0.000058,0.000005,-0.999992,0.000197,-0.000641,0.004064,-0.022911,0.073327,-0.465685,0.999966,-0.008128,-0.001280,0.008127,0.999967,-0.000400,0.001283,0.000389,0.999999
08681,9.759591,-0.308514,-0.764276,-0.039968,0.009465,-0.018443,0.010227,0.004156,-0.001433,0.493639,-0.035069,-0.773003,0.097596,-0.003085,-0.007645,1.000000,0.000051,0.000021,-0.000007,-0.999992,0.000204,-0.000618,0.004036,-0.023707,0.070725,-0.462489,0.999967,-0.008072,-0.001234,0.008071,0.999967,-0.000414,0.001238,0.000404,0.999999
08682,9.766365,-0.324278,-0.781375,-0.061293,0.017889,-0.009958,0.011026,0.004329,0.003579,0.495969,-0.026329,-0.779555,0.097664,-0.003241,-0.007816,1.000000,0.000055,0.000022,0.000018,-0.999992,0.000187,-0.000607,0.004018,-0.021719,0.069456,-0.460463,0.999967,-0.008037,-0.001212,0.008036,0.999968,-0.000379,0.001215,0.000369,0.999999
08683,9.756592,-0.274599,-0.760897,-0.025672,-0.021227,-0.022675,0.016895,0.007276,-0.001444,0.486991,-0.031241,-0.777865,0.097566,-0.002746,-0.007613,1.000000,0.000084,0.000036,-0.000007,-0.999992,0.000186,-0.000570,0.003957,-0.021559,0.065192,-0.453510,0.999968,-0.007915,-0.001138,0.007915,0.999969,-0.000376,0.001141,0.000367,0.999999
08684,9.713349,-0.312126,-0.777789,-0.058726,0.007686,-0.063430,0.016400,0.001457,0.000609,0.489871,-0.032791,-0.775889,0.097133,-0.003120,-0.007779,1.000000,0.000082,0.000007,0.000003,-0.999992,0.000187,-0.000565,0.003917,-0.021660,0.064665,-0.448904,0.999969,-0.007835,-0.001129,0.007834,0.999969,-0.000378,0.001132,0.000369,0.999999
08685,9.756643,-0.274789,-0.760181,-0.025665,-0.020735,-0.022673,0.011710,0.002754,-0.000666,0.483696,-0.030551,-0.782748,0.097566,-0.002748,-0.007603,1.000000,0.000059,0.000014,-0.000003,-0.999992,0.000192,-0.000550,0.003882,-0.022276,0.062973,-0.444871,0.999969,-0.007764,-0.001099,0.007764,0.999970,-0.000389,0.001102,0.000380,0.999999
08686,9.746982,-0.307444,-0.802599,-0.077850,-0.005359,-0.028197,0.012041,0.000248,-0.002982,0.482549,-0.027237,-0.777269,0.097470,-0.003075,-0.008026,1.000000,0.000060,0.000001,-0.000015,-0.999992,0.000212,-0.000542,0.003853,-0.024572,0.062041,-0.441590,0.999970,-0.007707,-0.001083,0.007707,0.999970,-0.000429,0.001086,0.000421,0.999999
08687,9.756657,-0.274669,-0.760041,-0.025709,-0.020272,-0.022673,0.009733,-0.001663,0.000621,0.494001,-0.031172,-0.775481,0.097567,-0.002746,-0.007600,1.000000,0.000049,-0.000008,0.000003,-0.999992,0.000221,-0.000550,0.003828,-0.025525,0.062973,-0.438668,0.999970,-0.007656,-0.001099,0.007656,0.999971,-0.000445,0.001102,0.000437,0.999999
08688,9.726138,-0.313703,-0.736961,-0.020868,0.024648,-0.053679,0.015272,0.003789,-0.002087,0.487647,-0.023263,-0.772774,0.097261,-0.003137,-0.007372,1.000000,0.000076,0.000019,-0.000010,-0.999993,0.000230,-0.000529,0.003789,-0.026590,0.060539,-0.434247,0.999971,-0.007579,-0.001057,0.007578,0.999971,-0.000464,0.001060,0.000456,0.999999
08689,9.753017,-0.293249,-0.744368,-0.018595,0.003176,-0.026929,0.018814,0.001388,-0.003895,0.483933,-0.023704,-0.771991,0.097530,-0.002934,-0.007445,1.000000,0.000094,0.000007,-0.000019,-0.999993,0.000250,-0.000515,0.003717,-0.028884,0.058895,-0.425998,0.999972,-0.007435,-0.001028,0.007434,0.999972,-0.000504,0.001032,0.000496,0.999999
08690,9.740293,-0.291501,-0.784458,-0.056499,-0.012526,-0.036680,0.022024,0.001495,-0.003387,0.485170,-0.036992,-0.776497,0.097403,-0.002916,-0.007846,1.000000,0.000110,0.000007,-0.000017,-0.999993,0.000270,-0.000502,0.003652,-0.031118,0.057390,-0.418503,0.999973,-0.007304,-0.001002,0.007304,0.999973,-0.000543,0.001006,0.000536,0.999999
08691,9.753054,-0.292935,-0.744012,-0.018605,0.003714,-0.026929,0.018463,0.000461,-0.001966,0.489716,-0.034153,-0.784693,0.097530,-0.002930,-0.007441,1.000000,0.000092,0.000002,-0.000010,-0.999993,0.000283,-0.000495,0.003582,-0.032599,0.056648,-0.410521,0.999974,-0.007165,-0.000989,0.007164,0.999974,-0.000569,0.000993,0.000562,0.999999
08692,9.770241,-0.305349,-0.794217,-0.068498,-0.002635,-0.005703,0.021902,0.000041,-0.002873,0.481368,-0.031995,-0.782808,0.097702,-0.003054,-0.007943,1.000000,0.000110,0.000000,-0.000014,-0.999994,0.000297,-0.000489,0.003499,-0.034228,0.055880,-0.400958,0.999975,-0.006998,-0.000975,0.006997,0.999975,-0.000597,0.000979,0.000591,0.999999
08693,9.767176,-0.271027,-0.791839,-0.054271,-0.033564,-0.009927,0.018237,0.000988,-0.000552,0.484515,-0.033862,-0.775710,0.097672,-0.002710,-0.007919,1.000000,0.000091,0.000005,-0.000003,-0.999994,0.000303,-0.000482,0.003431,-0.034858,0.055156,-0.393173,0.999976,-0.006862,-0.000963,0.006862,0.999976,-0.000608,0.000967,0.000602,0.999999
08694,9.786687,-0.288228,-0.768833,-0.037793,-0.009136,0.008306,0.013318,0.002809,-0.000413,0.482918,-0.034264,-0.774604,0.097867,-0.002882,-0.007690,1.000000,0.000067,0.000014,-0.000002,-0.999994,0.000305,-0.000465,0.003393,-0.035136,0.053212,-0.388808,0.999977,-0.006786,-0.000929,0.006785,0.999977,-0.000613,0.000933,0.000607,0.999999
08695,9.767203,-0.271212,-0.791437,-0.054349,-0.033107,-0.009926,0.006421,0.000213,0.001015,0.489807,-0.026080,-0.772945,0.097672,-0.002711,-0.007915,1.000000,0.000032,0.000001,0.000005,-0.999994,0.000309,-0.000466,0.003384,-0.035637,0.053227,-0.387825,0.999977,-0.006769,-0.000929,0.006768,0.999977,-0.000622,0.000933,0.000616,0.999999
08696,9.767214,-0.271108,-0.791332,-0.054344,-0.032862,-0.009925,0.007353,0.001542,-0.004257,0.491708,-0.031528,-0.776279,0.097672,-0.002713,-0.007914,1.000000,0.000037,0.000008,-0.000021,-0.999994,0.000336,-0.000451,0.003381,-0.038647,0.051539,-0.387499,0.999977,-0.006763,-0.000900,0.006762,0.999977,-0.000675,0.000904,0.000668,0.999999
08697,9.753120,-0.292809,-0.743196,-0.018722,0.005073,-0.026930,0.008027,0.000267,0.001269,0.487664,-0.035412,-0.770327,0.097531,-0.002927,-0.007432,1.000000,0.000040,0.000001,0.000006,-0.999994,0.000338,-0.000451,0.003365,-0.038929,0.051580,-0.385610,0.999977,-0.006730,-0.000900,0.006729,0.999977,-0.000679,0.000905,0.000673,0.999999
08698,9.767244,-0.271148,-0.790951,-0.054317,-0.032408,-0.009923,0.003355,0.004997,0.000378,0.491551,-0.032162,-0.774797,0.097672,-0.002711,-0.007912,1.000000,0.000017,0.000025,0.000002,-0.999994,0.000337,-0.000431,0.003381,-0.038763,0.049251,-0.387467,0.999977,-0.006763,-0.000860,0.006762,0.999977,-0.000677,0.000864,0.000671,0.999999
08699,9.773244,-0.257229,-0.732926,0.004950,-0.024401,-0.008656,0.006070,-0.000714,0.002945,0.487083,-0.029789,-0.772730,0.097733,-0.002571,-0.007329,1.000000,0.000030,-0.000004,0.000015,-0.999994,0.000334,-0.000439,0.003375,-0.038451,0.050167,-0.386750,0.999977,-0.006750,-0.000876,0.006749,0.999977,-0.000671,0.000880,0.000665,0.999999
08700,9.750066,-0.259065,-0.740448,-0.004426,-0.025417,-0.031149,0.001378,0.000580,0.001668,0.496364,-0.029639,-0.777872,0.097501,-0.002590,-0.007405,1.000000,0.000007,0.000003,0.000008,-0.999994,0.000337,-0.000441,0.003405,-0.038755,0.050412,-0.390179,0.999976,-0.006810,-0.000880,0.006809,0.999977,-0.000676,0.000884,0.000670,0.999999
08701,9.739646,-0.262368,-0.707436,0.024065,-0.010449,-0.043894,-0.002041,0.004436,0.002959,0.489262,-0.022860,-0.773637,0.097396,-0.002622,-0.007076,1.000000,-0.000010,0.000022,0.000015,-0.999994,0.000328,-0.000425,0.003440,-0.037722,0.048585,-0.394180,0.999976,-0.006880,-0.000848,0.006879,0.999976,-0.000658,0.000852,0.000653,0.999999
08702,9.739670,-0.262660,-0.707005,0.024119,-0.010174,-0.043894,-0.000435,0.004490,0.003213,0.489574,-0.026397,-0.774151,0.097397,-0.002625,-0.007072,1.000000,-0.000002,0.000022,0.000016,-0.999994,0.000319,-0.000413,0.003490,-0.036720,0.047178,-0.399981,0.999975,-0.006981,-0.000823,0.006980,0.999975,-0.000641,0.000828,0.000635,0.999999
08703,9.769618,-0.277057,-0.716528,0.012150,-0.000464,-0.012919,-0.002268,0.004963,0.004374,0.491859,-0.025545,-0.780944,0.097696,-0.002769,-0.007168,1.000000,-0.000011,0.000025,0.000022,-0.999994,0.000303,-0.000397,0.003527,-0.034835,0.045369,-0.404180,0.999975,-0.007054,-0.000792,0.007054,0.999975,-0.000608,0.000796,0.000602,1.000000
08704,9.755533,-0.299011,-0.667952,0.047828,0.037491,-0.029932,0.000269,0.006345,-0.000645,0.480151,-0.038564,-0.781243,0.097555,-0.002990,-0.006683,1.000000,0.000001,0.000032,-0.000003,-0.999994,0.000308,-0.000367,0.003572,-0.035466,0.041975,-0.409314,0.999974,-0.007144,-0.000733,0.007143,0.999974,-0.000619,0.000737,0.000614,1.000000
08705,9.715991,-0.317887,-0.699849,0.007631,0.043451,-0.066438,0.008068,0.007138,0.002040,0.484756,-0.026744,-0.773525,0.097160,-0.003178,-0.007002,1.000000,0.000040,0.000036,0.000010,-0.999994,0.000295,-0.000337,0.003556,-0.033891,0.038518,-0.407547,0.999974,-0.007113,-0.000672,0.007113,0.999975,-0.000592,0.000676,0.000587,1.000000
08706,9.727098,-0.262077,-0.744822,-0.013859,-0.025186,-0.053638,0.006359,0.009067,0.002685,0.489800,-0.024222,-0.773679,0.097271,-0.002619,-0.007453,1.000000,0.000032,0.000045,0.000013,-0.999994,0.000274,-0.000297,0.003555,-0.031540,0.033957,-0.407417,0.999975,-0.007111,-0.000593,0.007110,0.999975,-0.000550,0.000597,0.000546,1.000000
08707,9.763836,-0.291949,-0.771506,-0.047189,-0.007238,-0.014184,0.001647,0.006925,0.001023,0.485945,-0.036723,-0.775334,0.097638,-0.002919,-0.007718,1.000000,0.000008,0.000035,0.000005,-0.999994,0.000268,-0.000266,0.003571,-0.030842,0.030397,-0.409271,0.999974,-0.007143,-0.000531,0.007143,0.999974,-0.000538,0.000534,0.000534,1.000000
08708,9.793826,-0.306065,-0.780639,-0.059122,0.002488,0.016789,-0.003148,0.010201,0.000645,0.489051,-0.027031,-0.777293,0.097938,-0.003060,-0.007811,1.000000,-0.000016,0.000051,0.000003,-0.999993,0.000260,-0.000221,0.003625,-0.029888,0.025201,-0.415373,0.999974,-0.007250,-0.000440,0.007249,0.999974,-0.000522,0.000444,0.000518,1.000000
08709,9.813996,-0.270188,-0.769944,-0.035513,-0.027206,0.035070,-0.013132,0.008954,0.001048,0.494971,-0.031990,-0.770659,0.098140,-0.002702,-0.007704,1.000000,-0.000066,0.000045,0.000005,-0.999993,0.000256,-0.000180,0.003715,-0.029421,0.020561,-0.425703,0.999972,-0.007430,-0.000359,0.007430,0.999972,-0.000513,0.000363,0.000511,1.000000
08710,9.764030,-0.292058,-0.769007,-0.047123,-0.006508,-0.014183,-0.008213,0.007133,0.000912,0.483536,-0.029776,-0.767551,0.097640,-0.002920,-0.007693,1.000000,-0.000041,0.000036,0.000005,-0.999993,0.000255,-0.000152,0.003798,-0.029251,0.017302,-0.435168,0.999971,-0.007595,-0.000302,0.007595,0.999971,-0.000511,0.000306,0.000508,1.000000
08711,9.764069,-0.292201,-0.768451,-0.047136,-0.006271,-0.014183,-0.008690,0.004750,0.003356,0.489135,-0.027528,-0.768728,0.097641,-0.002921,-0.007687,1.000000,-0.000043,0.000024,0.000017,-0.999992,0.000246,-0.000135,0.003866,-0.028240,0.015390,-0.442989,0.999970,-0.007732,-0.000269,0.007731,0.999970,-0.000493,0.000272,0.000491,1.000000
08712,9.787281,-0.290849,-0.760246,-0.037683,-0.004767,0.008310,-0.005105,0.009221,0.002321,0.484906,-0.035720,-0.770108,0.097872,-0.002908,-0.007607,1.000000,-0.000026,0.000046,0.000012,-0.999992,0.000233,-0.000099,0.003930,-0.026759,0.011200,-0.450380,0.999969,-0.007861,-0.000195,0.007860,0.999969,-0.000467,0.000199,0.000465,1.000000
08713,9.750016,-0.314290,-0.719015,-0.011434,0.031875,-0.031204,-0.004773,0.006713,0.000007,0.483061,-0.036487,-0.777310,0.097500,-0.003143,-0.007193,1.000000,-0.000024,0.000034,0.000000,-0.999992,0.000235,-0.000067,0.003978,-0.026935,0.007538,-0.455855,0.999968,-0.007956,-0.000132,0.007956,0.999968,-0.000470,0.000135,0.000469,1.000000
08714,9.757452,-0.276900,-0.748950,-0.025755,-0.013833,-0.022661,0.003356,0.004997,0.000380,0.479544,-0.029357,-0.772623,0.097574,-0.002769,-0.007492,1.000000,0.000017,0.000025,0.000002,-0.999992,0.000232,-0.000044,0.003986,-0.026620,0.004911,-0.456755,0.999968,-0.007972,-0.000086,0.007972,0.999968,-0.000465,0.000089,0.000464,1.000000
08715,9.776960,-0.294236,-0.725521,-0.009198,0.010601,-0.004441,0.006235,0.007612,0.003203,0.489494,-0.038864,-0.771206,0.097769,-0.002941,-0.007259,1.000000,0.000031,0.000038,0.000016,-0.999992,0.000213,-0.000013,0.003980,-0.024412,0.001447,-0.456092,0.999968,-0.007960,-0.000025,0.007960,0.999968,-0.000426,0.000029,0.000426,1.000000
08716,9.723911,-0.282024,-0.722390,-0.006653,0.000060,-0.057904,0.003253,0.006978,0.001279,0.487894,-0.027027,-0.775243,0.097239,-0.002819,-0.007227,1.000000,0.000016,0.000035,0.000006,-0.999992,0.000203,0.000016,0.003993,-0.023310,-0.001958,-0.457546,0.999968,-0.007986,0.000034,0.007986,0.999968,-0.000407,-0.000031,0.000407,1.000000
08717,9.747127,-0.280590,-0.714075,0.002746,0.001546,-0.035412,0.004983,0.008486,0.001020,0.486237,-0.027023,-0.779520,0.097471,-0.002805,-0.007145,1.000000,0.000025,0.000042,0.000005,-0.999992,0.000193,0.000055,0.003993,-0.022134,-0.006348,-0.457520,0.999968,-0.007985,0.000111,0.007985,0.999968,-0.000386,-0.000108,0.000387,1.000000
08718,9.767281,-0.244761,-0.703451,0.026351,-0.028130,-0.017124,-0.001437,0.008274,0.000000,0.483320,-0.026920,-0.769248,0.097673,-0.002448,-0.007039,1.000000,-0.000007,0.000041,0.000000,-0.999992,0.000192,0.000093,0.004042,-0.022013,-0.010776,-0.463183,0.999967,-0.008084,0.000188,0.008084,0.999967,-0.000384,-0.000185,0.000386,1.000000
08719,9.740486,-0.264972,-0.694801,0.024089,-0.006202,-0.043890,-0.007836,0.011497,-0.000634,0.489447,-0.025130,-0.782713,0.097404,-0.002650,-0.006954,1.000000,-0.000039,0.000057,-0.000003,-0.999992,0.000190,0.000149,0.004106,-0.021658,-0.017123,-0.470460,0.999966,-0.008211,0.000299,0.008211,0.999966,-0.000378,-0.000296,0.000380,1.000000
08720,9.738346,-0.260487,-0.766924,-0.042368,-0.036571,-0.040877,-0.007063,0.008241,0.003993,0.487344,-0.035185,-0.773240,0.097383,-0.002603,-0.007673,1.000000,-0.000035,0.000041,0.000020,-0.999991,0.000173,0.000180,0.004185,-0.019714,-0.020675,-0.479602,0.999965,-0.008371,0.000361,0.008371,0.999965,-0.000344,-0.000358,0.000347,1.000000
08721,9.770543,-0.279157,-0.702966,0.012132,0.003803,-0.012920,-0.010942,0.009410,-0.002044,0.491567,-0.030029,-0.767206,0.097705,-0.002793,-0.007034,1.000000,-0.000055,0.000047,-0.000010,-0.999991,0.000181,0.000228,0.004264,-0.020686,-0.026208,-0.488560,0.999964,-0.008527,0.000457,0.008527,0.999964,-0.000361,-0.000454,0.000365,1.000000
08722,9.757939,-0.277534,-0.742330,-0.025739,-0.011923,-0.022659,-0.008189,0.010570,0.001295,0.484352,-0.027425,-0.782065,0.097579,-0.002775,-0.007428,1.000000,-0.000041,0.000053,0.000006,-0.999991,0.000171,0.000272,0.004339,-0.019407,-0.031199,-0.497260,0.999962,-0.008679,0.000545,0.008679,0.999962,-0.000339,-0.000542,0.000343,1.000000
08723,9.777469,-0.294572,-0.718491,-0.009170,0.012507,-0.004443,-0.007606,0.010972,-0.002048,0.493279,-0.035523,-0.779832,0.097774,-0.002947,-0.007190,1.000000,-0.000038,0.000055,-0.000010,-0.999990,0.000175,0.000327,0.004401,-0.019901,-0.037563,-0.504337,0.999961,-0.008802,0.000656,0.008802,0.999961,-0.000347,-0.000653,0.000353,1.000000
08724,9.781272,-0.275636,-0.732591,-0.016340,-0.010206,-0.000166,-0.009314,0.012900,-0.001403,0.487245,-0.024350,-0.776661,0.097812,-0.002757,-0.007332,1.000000,-0.000047,0.000065,-0.000007,-0.999990,0.000173,0.000390,0.004484,-0.019679,-0.044735,-0.513847,0.999959,-0.008968,0.000781,0.008968,0.999960,-0.000343,-0.000778,0.000350,1.000000
08725,9.784426,-0.309951,-0.733707,-0.030535,0.021228,0.004033,-0.008417,0.011097,0.002709,0.475940,-0.034560,-0.777726,0.097844,-0.003098,-0.007342,1.000000,-0.000042,0.000055,0.000014,-0.999990,0.000156,0.000437,0.004552,-0.017655,-0.050163,-0.521590,0.999958,-0.009103,0.000876,0.009104,0.999959,-0.000308,-0.000873,0.000316,1.000000
08726,9.757620,-0.330525,-0.725028,-0.032811,0.043161,-0.022738,-0.008771,0.010169,0.004638,0.486939,-0.034140,-0.769779,0.097576,-0.003303,-0.007255,1.000000,-0.000044,0.000051,0.000023,-0.999989,0.000132,0.000478,0.004632,-0.014848,-0.054845,-0.530768,0.999957,-0.009264,0.000957,0.009264,0.999957,-0.000259,-0.000955,0.000268,1.000000
08727,9.780834,-0.329265,-0.716524,-0.023409,0.044648,-0.000247,-0.003498,0.009275,0.002576,0.484568,-0.035858,-0.778408,0.097808,-0.003292,-0.007170,1.000000,-0.000017,0.000046,0.000013,-0.999989,0.000116,0.000517,0.004675,-0.013057,-0.059328,-0.535666,0.999956,-0.009349,0.001035,0.009349,0.999956,-0.000228,-0.001033,0.000238,0.999999
08728,9.757743,-0.331002,-0.723150,-0.032801,0.043595,-0.022739,0.000066,0.010309,0.001159,0.486431,-0.032962,-0.780270,0.097577,-0.003309,-0.007237,1.000000,0.000000,0.000052,0.000006,-0.999989,0.000102,0.000562,0.004704,-0.011417,-0.064480,-0.538983,0.999955,-0.009407,0.001125,0.009407,0.999956,-0.000199,-0.001123,0.000210,0.999999
08729,9.747297,-0.334317,-0.689453,-0.004281,0.058508,-0.035496,0.006360,0.009066,0.002696,0.490210,-0.036466,-0.780079,0.097473,-0.003342,-0.006899,1.000000,0.000032,0.000045,0.000013,-0.999989,0.000083,0.000600,0.004697,-0.009168,-0.068826,-0.538252,0.999955,-0.009394,0.001201,0.009394,0.999956,-0.000160,-0.001200,0.000171,0.999999
08730,9.713685,-0.339191,-0.663430,0.014850,0.072134,-0.070745,0.010028,0.008118,0.000379,0.489769,-0.037913,-0.772942,0.097137,-0.003391,-0.006638,1.000000,0.000050,0.000041,0.000002,-0.999989,0.000073,0.000637,0.004679,-0.007992,-0.073026,-0.536131,0.999955,-0.009357,0.001275,0.009357,0.999956,-0.000139,-0.001273,0.000151,0.999999
08731,9.701771,-0.284830,-0.715718,-0.016111,0.002300,-0.080397,0.009822,0.012082,0.002179,0.488344,-0.029930,-0.777482,0.097017,-0.002847,-0.007163,1.000000,0.000049,0.000060,0.000011,-0.999989,0.000049,0.000690,0.004655,-0.005228,-0.079086,-0.533452,0.999956,-0.009310,0.001380,0.009310,0.999957,-0.000091,-0.001379,0.000104,0.999999
08732,9.737620,-0.284952,-0.666882,0.031288,0.019681,-0.048170,0.005089,0.006505,0.000125,0.487748,-0.032740,-0.779150,0.097376,-0.002849,-0.006672,1.000000,0.000025,0.000033,0.000001,-0.999989,0.000045,0.000718,0.004663,-0.004786,-0.082293,-0.534296,0.999955,-0.009325,0.001436,0.009325,0.999957,-0.000084,-0.001435,0.000097,0.999999
08733,9.728760,-0.264752,-0.721807,-0.013852,-0.018945,-0.053624,0.003484,0.006452,-0.000131,0.487405,-0.037318,-0.779857,0.097287,-0.002647,-0.007221,1.000000,0.000017,0.000032,-0.000001,-0.999989,0.000045,0.000749,0.004669,-0.004715,-0.085843,-0.535046,0.999955,-0.009338,0.001498,0.009338,0.999956,-0.000082,-0.001497,0.000096,0.999999
08734,9.768316,-0.246082,-0.688468,0.026331,-0.024510,-0.017115,0.003255,0.006979,0.001283,0.486651,-0.029609,-0.783961,0.097683,-0.002460,-0.006888,1.000000,0.000016,0.000035,0.000006,-0.999989,0.000035,0.000779,0.004684,-0.003601,-0.089251,-0.536764,0.999955,-0.009368,0.001558,0.009368,0.999956,-0.000063,-0.001557,0.000077,0.999999
08735,9.778898,-0.242985,-0.720408,-0.002217,-0.038943,-0.004356,0.000526,0.009256,-0.001672,0.483577,-0.035356,-0.781759,0.097789,-0.002431,-0.007209,1.000000,0.000003,0.000046,-0.000008,-0.999989,0.000038,0.000826,0.004705,-0.003889,-0.094620,-0.539185,0.999954,-0.009410,0.001651,0.009411,0.999956,-0.000068,-0.001651,0.000083,0.999999
08736,9.799043,-0.207053,-0.709762,0.021328,-0.068677,0.013945,-0.006604,0.007188,0.001160,0.486895,-0.029879,-0.772225,0.097990,-0.002070,-0.007101,1.000000,-0.000033,0.000036,0.000006,-0.999988,0.000033,0.000858,0.004772,-0.003350,-0.098382,-0.546835,0.999953,-0.009544,0.001717,0.009544,0.999954,-0.000058,-0.001716,0.000075,0.999999
08737,9.748403,-0.281947,-0.695889,0.002700,0.006135,-0.035414,-0.011396,0.010466,0.000777,0.485110,-0.029648,-0.776982,0.097484,-0.002819,-0.006964,1.000000,-0.000057,0.000052,0.000004,-0.999988,0.000027,0.000906,0.004854,-0.002609,-0.103878,-0.556189,0.999951,-0.009707,0.001813,0.009707,0.999953,-0.000046,-0.001812,0.000063,0.999998
08738,9.758984,-0.279117,-0.727859,-0.025817,-0.008286,-0.022655,-0.009149,0.005806,0.006175,0.484996,-0.031776,-0.769136,0.097590,-0.002788,-0.007281,1.000000,-0.000046,0.000029,0.000031,-0.999987,0.000004,0.000921,0.004939,0.000083,-0.105562,-0.565921,0.999950,-0.009877,0.001842,0.009877,0.999951,0.000001,-0.001842,0.000017,0.999998
08739,9.768890,-0.329435,-0.746893,-0.061336,0.031436,-0.009992,-0.008541,0.009644,0.003219,0.481515,-0.035712,-0.779636,0.097689,-0.003293,-0.007473,1.000000,-0.000043,0.000048,0.000016,-0.999987,-0.000013,0.000961,0.005007,0.002075,-0.110105,-0.573733,0.999948,-0.010013,0.001922,0.010013,0.999950,0.000036,-0.001922,-0.000017,0.999998
08740,9.774746,-0.315686,-0.688283,-0.002032,0.039280,-0.008734,-0.007188,0.006787,0.004503,0.483314,-0.031318,-0.771452,0.097747,-0.003155,-0.006886,1.000000,-0.000036,0.000034,0.000023,-0.999987,-0.000033,0.000984,0.005074,0.004352,-0.112768,-0.581440,0.999947,-0.010148,0.001968,0.010148,0.999949,0.000076,-0.001969,-0.000056,0.999998
08741,9.747889,-0.336370,-0.680014,-0.004263,0.061197,-0.035513,0.001066,0.006524,0.004372,0.489724,-0.031883,-0.773183,0.097479,-0.003362,-0.006803,1.000000,0.000005,0.000033,0.000022,-0.999987,-0.000054,0.001007,0.005094,0.006724,-0.115406,-0.583762,0.999946,-0.010188,0.002014,0.010188,0.999948,0.000117,-0.002015,-0.000097,0.999998
08742,9.762206,-0.314979,-0.727346,-0.039956,0.023836,-0.018467,0.006109,0.006156,0.003727,0.483823,-0.033181,-0.781043,0.097622,-0.003148,-0.007277,1.000000,0.000031,0.000031,0.000019,-0.999986,-0.000073,0.001027,0.005100,0.008947,-0.117691,-0.584396,0.999946,-0.010199,0.002054,0.010199,0.999948,0.000156,-0.002056,-0.000135,0.999998
08743,9.785386,-0.313808,-0.719125,-0.030553,0.025324,0.004023,0.004505,0.006103,0.003470,0.482111,-0.027327,-0.779928,0.097854,-0.003136,-0.007194,1.000000,0.000023,0.000031,0.000017,-0.999986,-0.000090,0.001050,0.005102,0.010902,-0.120294,-0.584709,0.999946,-0.010205,0.002100,0.010205,0.999948,0.000190,-0.002101,-0.000169,0.999998
08744,9.759239,-0.281430,-0.723539,-0.025845,-0.006903,-0.022654,0.007991,0.012555,0.003342,0.487100,-0.030787,-0.774200,0.097592,-0.002812,-0.007242,1.000000,0.000040,0.000063,0.000017,-0.999986,-0.000119,0.001104,0.005100,0.014285,-0.126463,-0.584430,0.999946,-0.010200,0.002207,0.010200,0.999948,0.000249,-0.002210,-0.000227,0.999998
08745,9.742975,-0.298936,-0.747487,-0.056616,0.000366,-0.036673,0.001445,0.010890,0.002829,0.483678,-0.029871,-0.779562,0.097429,-0.002988,-0.007480,1.000000,0.000007,0.000054,0.000014,-0.999986,-0.000140,0.001150,0.005118,0.016773,-0.131751,-0.586545,0.999945,-0.010237,0.002299,0.010236,0.999948,0.000293,-0.002302,-0.000269,0.999997
08746,9.736223,-0.283672,-0.729152,-0.035263,-0.007680,-0.045146,0.006110,0.006156,0.003728,0.482753,-0.028826,-0.782673,0.097362,-0.002835,-0.007295,1.000000,0.000031,0.000031,0.000019,-0.999986,-0.000159,0.001172,0.005126,0.018932,-0.134206,-0.587388,0.999945,-0.010252,0.002342,0.010251,0.999947,0.000330,-0.002346,-0.000306,0.999997
08747,9.755667,-0.301169,-0.705467,-0.018661,0.016737,-0.026943,0.008095,0.010574,0.002442,0.478723,-0.032620,-0.779416,0.097556,-0.003010,-0.007060,1.000000,0.000040,0.000053,0.000012,-0.999986,-0.000181,0.001218,0.005111,0.021440,-0.139408,-0.585683,0.999945,-0.010222,0.002433,0.010221,0.999948,0.000374,-0.002437,-0.000349,0.999997
08748,9.752680,-0.267165,-0.702154,-0.004562,-0.014246,-0.031126,0.009700,0.010626,0.002699,0.481906,-0.031995,-0.775994,0.097526,-0.002670,-0.007027,1.000000,0.000048,0.000053,0.000013,-0.999986,-0.000204,0.001264,0.005098,0.024166,-0.144776,-0.584199,0.999945,-0.010196,0.002527,0.010195,0.999948,0.000422,-0.002531,-0.000396,0.999997
08749,9.732658,-0.303305,-0.710985,-0.028129,0.015956,-0.049436,0.009930,0.010100,0.001285,0.490881,-0.037463,-0.773275,0.097326,-0.003032,-0.007115,1.000000,0.000050,0.000050,0.000006,-0.999986,-0.000221,0.001310,0.005073,0.026039,-0.149972,-0.581390,0.999945,-0.010147,0.002617,0.010146,0.999948,0.000454,-0.002622,-0.000428,0.999996
08750,9.759626,-0.283223,-0.717595,-0.025887,-0.005514,-0.022654,0.008326,0.010047,0.001028,0.481869,-0.030273,-0.781134,0.097596,-0.002831,-0.007181,1.000000,0.000042,0.000050,0.000005,-0.999986,-0.000236,0.001353,0.005064,0.027854,-0.154930,-0.580310,0.999945,-0.010128,0.002704,0.010127,0.999949,0.000486,-0.002709,-0.000459,0.999996
08751,9.766496,-0.299003,-0.734237,-0.047241,0.003013,-0.014182,0.009907,0.006663,0.000900,0.478588,-0.027404,-0.771568,0.097665,-0.002989,-0.007346,1.000000,0.000050,0.000033,0.000005,-0.999986,-0.000244,0.001383,0.005039,0.028798,-0.158376,-0.577440,0.999945,-0.010078,0.002764,0.010077,0.999949,0.000503,-0.002769,-0.000475,0.999996
08752,9.768534,-0.303615,-0.660536,0.019247,0.033783,-0.017217,0.010367,0.005609,-0.001928,0.489042,-0.030342,-0.780721,0.097685,-0.003037,-0.006608,1.000000,0.000052,0.000028,-0.000010,-0.999986,-0.000237,0.001414,0.005023,0.027957,-0.161927,-0.575592,0.999946,-0.010046,0.002826,0.010044,0.999949,0.000488,-0.002831,-0.000460,0.999996
08753,9.756019,-0.301962,-0.700234,-0.018727,0.018133,-0.026946,0.010494,0.007064,-0.002442,0.492479,-0.033254,-0.778544,0.097560,-0.003020,-0.007006,1.000000,0.000052,0.000035,-0.000012,-0.999986,-0.000230,0.001452,0.004993,0.027236,-0.166292,-0.572253,0.999946,-0.009987,0.002902,0.009986,0.999950,0.000475,-0.002907,-0.000446,0.999996
08754,9.766655,-0.298555,-0.732297,-0.047233,0.003735,-0.014182,0.007745,0.005904,-0.005785,0.487574,-0.036547,-0.777177,0.097666,-0.002988,-0.007326,1.000000,0.000039,0.000030,-0.000029,-0.999986,-0.000205,0.001488,0.004991,0.024395,-0.170420,-0.571966,0.999946,-0.009982,0.002974,0.009981,0.999950,0.000426,-0.002978,-0.000396,0.999995
08755,9.766715,-0.298257,-0.731626,-0.047245,0.003971,-0.014182,0.013705,0.007170,-0.001927,0.487099,-0.027978,-0.780078,0.097667,-0.002983,-0.007320,1.000000,0.000069,0.000036,-0.000010,-0.999987,-0.000203,0.001526,0.004946,0.024109,-0.174733,-0.566817,0.999946,-0.009893,0.003050,0.009891,0.999951,0.000421,-0.003054,-0.000391,0.999995
08756,9.743629,-0.299761,-0.738586,-0.056636,0.002949,-0.036673,0.013578,0.005715,-0.001412,0.487064,-0.028025,-0.787422,0.097436,-0.002998,-0.007389,1.000000,0.000068,0.000029,-0.000007,-0.999987,-0.000200,0.001554,0.004914,0.023827,-0.177958,-0.563090,0.999947,-0.009828,0.003106,0.009826,0.999952,0.000416,-0.003110,-0.000385,0.999995
08757,9.786886,-0.262378,-0.720551,-0.023693,-0.025539,0.004133,0.014826,0.004841,0.000774,0.486196,-0.025935,-0.781231,0.097869,-0.002623,-0.007208,1.000000,0.000074,0.000024,0.000004,-0.999987,-0.000206,0.001576,0.004864,0.024533,-0.180461,-0.557374,0.999948,-0.009728,0.003150,0.009727,0.999953,0.000428,-0.003154,-0.000398,0.999995
08758,9.766840,-0.298463,-0.729871,-0.047243,0.004704,-0.014183,0.009781,0.005210,0.001415,0.483807,-0.028376,-0.783736,0.097668,-0.002984,-0.007301,1.000000,0.000049,0.000026,0.000007,-0.999987,-0.000213,0.001598,0.004858,0.025261,-0.183010,-0.556768,0.999948,-0.009717,0.003194,0.009716,0.999953,0.000441,-0.003198,-0.000410,0.999995
08759,9.766873,-0.298759,-0.729302,-0.047255,0.004941,-0.014183,0.011156,0.005791,0.003086,0.483159,-0.034765,-0.780746,0.097669,-0.002986,-0.007296,1.000000,0.000056,0.000029,0.000015,-0.999987,-0.000230,0.001620,0.004828,0.027235,-0.185531,-0.553261,0.999948,-0.009656,0.003238,0.009655,0.999953,0.000475,-0.003243,-0.000444,0.999995
08760,9.779447,-0.300592,-0.688440,-0.009304,0.021044,-0.004458,0.012865,0.003861,0.002445,0.487108,-0.024667,-0.776650,0.097794,-0.003004,-0.006886,1.000000,0.000064,0.000019,0.000012,-0.999987,-0.000241,0.001635,0.004799,0.028548,-0.187206,-0.550000,0.999949,-0.009599,0.003267,0.009598,0.999954,0.000498,-0.003272,-0.000467,0.999995
08761,9.733205,-0.304097,-0.703120,-0.028144,0.018776,-0.049441,0.014494,0.007352,0.003086,0.482903,-0.030140,-0.780726,0.097332,-0.003039,-0.007035,1.000000,0.000072,0.000037,0.000015,-0.999987,-0.000263,0.001664,0.004752,0.030995,-0.190558,-0.544613,0.999949,-0.009505,0.003326,0.009503,0.999955,0.000541,-0.003331,-0.000509,0.999994
08762,9.737017,-0.285649,-0.717684,-0.035357,-0.003884,-0.045144,0.011745,0.006190,-0.000257,0.483304,-0.031138,-0.777329,0.097370,-0.002856,-0.007180,1.000000,0.000059,0.000031,-0.000001,-0.999987,-0.000264,0.001693,0.004735,0.031149,-0.193892,-0.542650,0.999949,-0.009471,0.003384,0.009469,0.999955,0.000544,-0.003389,-0.000512,0.999994
08763,9.733303,-0.304489,-0.701585,-0.028147,0.019272,-0.049442,0.013145,0.010209,0.001798,0.482340,-0.040157,-0.778232,0.097333,-0.003044,-0.007021,1.000000,0.000066,0.000051,0.000009,-0.999987,-0.000284,0.001738,0.004695,0.033454,-0.199038,-0.538030,0.999950,-0.009390,0.003474,0.009388,0.999956,0.000584,-0.003479,-0.000551,0.999994
08764,9.760276,-0.284528,-0.708174,-0.025956,-0.002193,-0.022652,0.014750,0.010262,0.002056,0.481803,-0.028731,-0.780884,0.097602,-0.002844,-0.007087,1.000000,0.000074,0.000051,0.000010,-0.999988,-0.000307,0.001782,0.004652,0.036146,-0.204093,-0.533123,0.999950,-0.009305,0.003562,0.009302,0.999957,0.000631,-0.003568,-0.000598,0.999993
08765,9.750868,-0.317533,-0.749732,-0.078055,0.013417,-0.028206,0.012001,0.009100,-0.001287,0.484115,-0.032547,-0.780822,0.097508,-0.003176,-0.007502,1.000000,0.000060,0.000045,-0.000006,-0.999988,-0.000310,0.001828,0.004616,0.036529,-0.209300,-0.529008,0.999951,-0.009233,0.003653,0.009230,0.999957,0.000638,-0.003659,-0.000604,0.999993
08766,9.763461,-0.318966,-0.708516,-0.040091,0.029519,-0.018484,0.011874,0.007645,-0.000771,0.484728,-0.037716,-0.775727,0.097634,-0.003190,-0.007089,1.000000,0.000059,0.000038,-0.000004,-0.999988,-0.000313,0.001866,0.004593,0.036836,-0.213634,-0.526423,0.999951,-0.009188,0.003729,0.009185,0.999958,0.000643,-0.003734,-0.000609,0.999993
08767,9.774132,-0.315954,-0.740373,-0.068664,0.015151,-0.005716,0.013608,0.009153,-0.001029,0.480548,-0.031811,-0.782254,0.097741,-0.003160,-0.007408,1.000000,0.000068,0.000046,-0.000005,-0.999988,-0.000318,0.001911,0.004549,0.037436,-0.218815,-0.521402,0.999951,-0.009100,0.003819,0.009098,0.999958,0.000653,-0.003825,-0.000619,0.999992
08768,9.767357,-0.300316,-0.722151,-0.047334,0.007050,-0.014184,0.016794,0.005822,-0.000894,0.483612,-0.037395,-0.774904,0.097673,-0.003003,-0.007225,1.000000,0.000084,0.000029,-0.000004,-0.999988,-0.000320,0.001940,0.004496,0.037664,-0.222149,-0.515327,0.999952,-0.008994,0.003877,0.008991,0.999959,0.000657,-0.003883,-0.000622,0.999992
08769,9.797374,-0.314269,-0.731303,-0.059265,0.016856,0.016774,0.017384,0.006220,-0.004237,0.482435,-0.029006,-0.780934,0.097973,-0.003144,-0.007316,1.000000,0.000087,0.000031,-0.000021,-0.999988,-0.000306,0.001977,0.004432,0.036104,-0.226446,-0.507965,0.999953,-0.008865,0.003952,0.008863,0.999961,0.000630,-0.003958,-0.000595,0.999992
08770,9.771255,-0.281363,-0.735931,-0.054573,-0.015405,-0.009883,0.020389,0.010293,-0.001926,0.487518,-0.032059,-0.778642,0.097712,-0.002814,-0.007365,1.000000,0.000102,0.000051,-0.000010,-0.999988,-0.000312,0.002029,0.004364,0.036813,-0.232334,-0.500154,0.999954,-0.008729,0.004055,0.008727,0.999962,0.000642,-0.004060,-0.000607,0.999992
08771,9.780057,-0.301254,-0.679428,-0.009373,0.023596,-0.004464,0.022433,0.005851,-0.004874,0.486539,-0.030740,-0.774401,0.097800,-0.003014,-0.006797,1.000000,0.000112,0.000029,-0.000024,-0.999989,-0.000297,0.002066,0.004274,0.035051,-0.236571,-0.489874,0.999955,-0.008550,0.004129,0.008547,0.999963,0.000612,-0.004134,-0.000576,0.999991
08772,9.780829,-0.247951,-0.691940,-0.002468,-0.030324,-0.004326,0.022434,0.005852,-0.004874,0.484028,-0.034813,-0.776651,0.097808,-0.002481,-0.006923,1.000000,0.000112,0.000029,-0.000024,-0.999989,-0.000281,0.002100,0.004199,0.033266,-0.240510,-0.481223,0.999956,-0.008399,0.004198,0.008396,0.999965,0.000581,-0.004202,-0.000545,0.999991
08773,9.780166,-0.300569,-0.678158,-0.009344,0.024068,-0.004465,0.019224,0.005745,-0.005391,0.483384,-0.031866,-0.786641,0.097801,-0.003008,-0.006785,1.000000,0.000096,0.000029,-0.000027,-0.999989,-0.000262,0.002137,0.004125,0.031070,-0.244798,-0.472754,0.999957,-0.008251,0.004273,0.008249,0.999966,0.000542,-0.004277,-0.000507,0.999991
08774,9.730905,-0.269025,-0.690648,-0.014083,-0.009450,-0.053610,0.020958,0.007254,-0.005649,0.485713,-0.036359,-0.773111,0.097309,-0.002692,-0.006910,1.000000,0.000105,0.000036,-0.000028,-0.999989,-0.000246,0.002182,0.004053,0.029171,-0.249904,-0.464510,0.999958,-0.008107,0.004362,0.008105,0.999967,0.000509,-0.004366,-0.000474,0.999990
08775,9.741584,-0.265703,-0.722744,-0.042665,-0.023805,-0.040839,0.020704,0.004345,-0.004616,0.482202,-0.032089,-0.786058,0.097416,-0.002659,-0.007230,1.000000,0.000104,0.000022,-0.000023,-0.999990,-0.000228,0.002211,0.003972,0.027154,-0.253282,-0.455203,0.999959,-0.007945,0.004421,0.007943,0.999968,0.000474,-0.004424,-0.000439,0.999990
08776,9.757919,-0.248105,-0.697038,-0.011913,-0.030661,-0.026814,0.017517,0.007676,-0.004754,0.489772,-0.027532,-0.777350,0.097579,-0.002483,-0.006974,1.000000,0.000088,0.000038,-0.000024,-0.999990,-0.000215,0.002255,0.003917,0.025702,-0.258349,-0.448859,0.999959,-0.007834,0.004509,0.007832,0.999969,0.000449,-0.004512,-0.000413,0.999990
08777,9.757978,-0.247788,-0.696317,-0.011927,-0.030427,-0.026813,0.017390,0.006222,-0.004237,0.482028,-0.028278,-0.775759,0.097580,-0.002479,-0.006966,1.000000,0.000087,0.000031,-0.000021,-0.999990,-0.000202,0.002293,0.003852,0.024138,-0.262646,-0.441493,0.999960,-0.007705,0.004584,0.007703,0.999970,0.000421,-0.004587,-0.000386,0.999989
08778,9.761800,-0.228871,-0.711128,-0.019140,-0.053079,-0.022506,0.013924,0.003206,-0.003720,0.486175,-0.022762,-0.782209,0.097618,-0.002290,-0.007113,1.000000,0.000070,0.000016,-0.000019,-0.999990,-0.000182,0.002313,0.003824,0.021898,-0.264968,-0.438229,0.999960,-0.007648,0.004625,0.007647,0.999971,0.000382,-0.004627,-0.000347,0.999989
08779,9.754285,-0.266052,-0.679935,-0.004669,-0.007018,-0.031118,0.015091,0.007758,-0.000257,0.481155,-0.035121,-0.777894,0.097543,-0.002660,-0.006803,1.000000,0.000075,0.000039,-0.000001,-0.999990,-0.000189,0.002350,0.003773,0.022673,-0.269243,-0.432368,0.999960,-0.007546,0.004699,0.007544,0.999971,0.000396,-0.004702,-0.000360,0.999989
08780,9.750547,-0.284777,-0.663976,0.002578,0.016150,-0.035425,0.011624,0.004742,0.000260,0.485233,-0.038808,-0.784828,0.097505,-0.002847,-0.006642,1.000000,0.000058,0.000024,0.000001,-0.999990,-0.000190,0.002372,0.003755,0.022810,-0.271715,-0.430357,0.999961,-0.007511,0.004742,0.007509,0.999972,0.000398,-0.004745,-0.000362,0.999989
08781,9.714963,-0.285219,-0.711495,-0.044840,-0.000694,-0.067634,0.011393,0.005272,0.001672,0.489300,-0.032564,-0.781966,0.097149,-0.002851,-0.007118,1.000000,0.000057,0.000026,0.000008,-0.999990,-0.000200,0.002394,0.003723,0.023928,-0.274257,-0.426647,0.999961,-0.007446,0.004787,0.007444,0.999972,0.000418,-0.004790,-0.000382,0.999988
08782,9.757468,-0.300939,-0.680199,-0.018744,0.024934,-0.026961,0.006240,0.007624,0.003203,0.483729,-0.035673,-0.778097,0.097574,-0.003008,-0.006806,1.000000,0.000031,0.000038,0.000016,-0.999990,-0.000220,0.002423,0.003727,0.026250,-0.277554,-0.427117,0.999960,-0.007454,0.004844,0.007452,0.999972,0.000458,-0.004847,-0.000422,0.999988
08783,9.745027,-0.299800,-0.719883,-0.056747,0.009345,-0.036678,0.010147,0.006142,-0.000516,0.481093,-0.028774,-0.780093,0.097450,-0.002998,-0.007202,1.000000,0.000051,0.000031,-0.000003,-0.999990,-0.000221,0.002453,0.003700,0.026336,-0.281021,-0.424042,0.999961,-0.007401,0.004905,0.007399,0.999973,0.000460,-0.004908,-0.000423,0.999988
08784,9.734413,-0.302907,-0.686716,-0.028169,0.024153,-0.049452,0.004482,0.002678,0.003084,0.483808,-0.039528,-0.779818,0.097344,-0.003027,-0.006869,1.000000,0.000022,0.000013,0.000015,-0.999990,-0.000230,0.002460,0.003714,0.027355,-0.281805,-0.425653,0.999960,-0.007429,0.004918,0.007427,0.999972,0.000477,-0.004922,-0.000441,0.999988
08785,9.771981,-0.280052,-0.726740,-0.054593,-0.011842,-0.009878,0.004610,0.004132,0.002567,0.492452,-0.034842,-0.786869,0.097720,-0.002799,-0.007269,1.000000,0.000023,0.000021,0.000013,-0.999990,-0.000239,0.002475,0.003715,0.028421,-0.283549,-0.425836,0.999960,-0.007432,0.004949,0.007430,0.999972,0.000496,-0.004952,-0.000459,0.999988
08786,9.745093,-0.300605,-0.718659,-0.056732,0.010026,-0.036679,0.007823,0.004240,0.003085,0.478873,-0.030085,-0.791428,0.097451,-0.003004,-0.007189,1.000000,0.000039,0.000021,0.000015,-0.999990,-0.000253,0.002488,0.003710,0.030083,-0.285020,-0.425189,0.999960,-0.007421,0.004975,0.007418,0.999972,0.000525,-0.004978,-0.000488,0.999987
08787,9.712065,-0.252636,-0.706390,-0.030763,-0.030588,-0.071787,0.004147,0.005193,0.005391,0.474051,-0.033511,-0.776352,0.097121,-0.002524,-0.007066,1.000000,0.000021,0.000026,0.000027,-0.999990,-0.000277,0.002503,0.003715,0.032853,-0.286733,-0.425773,0.999960,-0.007431,0.005004,0.007428,0.999972,0.000573,-0.005009,-0.000536,0.999987
08788,9.742062,-0.267295,-0.715671,-0.042734,-0.020752,-0.040832,0.002413,0.003685,0.005650,0.485076,-0.031100,-0.781387,0.097421,-0.002670,-0.007159,1.000000,0.000012,0.000018,0.000028,-0.999990,-0.000299,0.002513,0.003738,0.035340,-0.287864,-0.428477,0.999959,-0.007478,0.005024,0.007475,0.999972,0.000617,-0.005029,-0.000579,0.999987
08789,9.742074,-0.267844,-0.715311,-0.042747,-0.020518,-0.040832,0.000807,0.003630,0.005391,0.483290,-0.029143,-0.774144,0.097421,-0.002676,-0.007155,1.000000,0.000004,0.000018,0.000027,-0.999990,-0.000319,0.002521,0.003760,0.037640,-0.288744,-0.430942,0.999959,-0.007521,0.005040,0.007518,0.999972,0.000657,-0.005044,-0.000619,0.999987
08790,9.769001,-0.248150,-0.722607,-0.040571,-0.041923,-0.014028,0.000808,0.003630,0.005391,0.485706,-0.029605,-0.779233,0.097690,-0.002479,-0.007228,1.000000,0.000004,0.000018,0.000027,-0.999990,-0.000338,0.002527,0.003797,0.039844,-0.289435,-0.435196,0.999958,-0.007595,0.005052,0.007592,0.999971,0.000695,-0.005057,-0.000657,0.999987
08791,9.735246,-0.253158,-0.697144,-0.021419,-0.028382,-0.049294,-0.000670,0.005030,0.004614,0.486088,-0.034774,-0.777059,0.097352,-0.002529,-0.006974,1.000000,-0.000003,0.000025,0.000023,-0.999989,-0.000356,0.002543,0.003826,0.041964,-0.291224,-0.438497,0.999958,-0.007653,0.005083,0.007649,0.999970,0.000732,-0.005088,-0.000693,0.999987
08792,9.788364,-0.266079,-0.698784,-0.023880,-0.017292,0.004150,-0.005616,0.003414,0.004354,0.496515,-0.030637,-0.777639,0.097884,-0.002659,-0.006989,1.000000,-0.000028,0.000017,0.000022,-0.999989,-0.000369,0.002549,0.003893,0.043375,-0.291951,-0.446162,0.999957,-0.007787,0.005095,0.007783,0.999969,0.000757,-0.005101,-0.000717,0.999987
08793,9.719024,-0.271296,-0.721314,-0.052143,-0.020809,-0.063320,-0.003985,0.006907,0.004990,0.480466,-0.027549,-0.785186,0.097190,-0.002711,-0.007216,1.000000,-0.000020,0.000035,0.000025,-0.999989,-0.000391,0.002573,0.003938,0.045949,-0.294657,-0.451404,0.999956,-0.007878,0.005143,0.007874,0.999969,0.000802,-0.005149,-0.000761,0.999986
08794,9.788422,-0.266900,-0.697659,-0.023861,-0.016798,0.004151,0.002902,0.006062,0.003203,0.483593,-0.029734,-0.776617,0.097884,-0.002667,-0.006980,1.000000,0.000015,0.000030,0.000016,-0.999989,-0.000405,0.002594,0.003968,0.047547,-0.297025,-0.454811,0.999955,-0.007938,0.005184,0.007934,0.999968,0.000830,-0.005190,-0.000789,0.999986
08795,9.758483,-0.253237,-0.687224,-0.011969,-0.026171,-0.026801,0.002567,0.008577,0.005510,0.479488,-0.035297,-0.776537,0.097585,-0.002530,-0.006876,1.000000,0.000013,0.000043,0.000028,-0.999989,-0.000435,0.002624,0.003981,0.051026,-0.300514,-0.456361,0.999955,-0.007965,0.005245,0.007960,0.999968,0.000891,-0.005252,-0.000849,0.999986
08796,9.838545,-0.245960,-0.696179,-0.012300,-0.036733,0.053448,0.001296,0.006008,0.002943,0.489431,-0.031112,-0.776344,0.098385,-0.002458,-0.006965,1.000000,0.000006,0.000030,0.000015,-0.999988,-0.000448,0.002646,0.004011,0.052547,-0.303058,-0.459752,0.999954,-0.008024,0.005289,0.008019,0.999967,0.000917,-0.005297,-0.000875,0.999986
08797,9.815460,-0.247871,-0.703261,-0.021731,-0.037748,0.030959,0.002902,0.006062,0.003203,0.483868,-0.035040,-0.779822,0.098154,-0.002477,-0.007036,1.000000,0.000015,0.000030,0.000016,-0.999988,-0.000463,0.002670,0.004021,0.054286,-0.305695,-0.460972,0.999953,-0.008045,0.005335,0.008040,0.999967,0.000947,-0.005343,-0.000905,0.999985
08798,9.804834,-0.251042,-0.669893,0.006893,-0.022972,0.018181,-0.001787,0.007354,0.001907,0.480966,-0.040744,-0.785226,0.098048,-0.002510,-0.006703,1.000000,-0.000009,0.000037,0.000010,-0.999988,-0.000473,0.002698,0.004068,0.055420,-0.309001,-0.466321,0.999952,-0.008139,0.005393,0.008134,0.999966,0.000967,-0.005401,-0.000923,0.999985
08799,9.785551,-0.234157,-0.692429,-0.009808,-0.046892,0.000009,-0.005153,0.002354,0.001528,0.484722,-0.034453,-0.779400,0.097855,-0.002341,-0.006925,1.000000,-0.000026,0.000012,0.000008,-0.999988,-0.000470,0.002707,0.004118,0.055150,-0.310012,-0.472008,0.999951,-0.008238,0.005411,0.008233,0.999966,0.000963,-0.005418,-0.000918,0.999985
08800,9.785559,-0.234482,-0.692210,-0.009814,-0.046688,0.000010,-0.007583,0.002438,0.006023,0.483831,-0.031232,-0.784473,0.097856,-0.002342,-0.006923,1.000000,-0.000038,0.000012,0.000030,-0.999987,-0.000489,0.002708,0.004187,0.057354,-0.310065,-0.479918,0.999950,-0.008376,0.005412,0.008371,0.999964,0.001001,-0.005420,-0.000956,0.999985
08801,9.735520,-0.256491,-0.692081,-0.021390,-0.026053,-0.049288,-0.009739,0.001662,-0.000663,0.479608,-0.027725,-0.773608,0.097355,-0.002566,-0.006921,1.000000,-0.000049,0.000008,-0.000003,-0.999987,-0.000473,0.002717,0.004258,0.055582,-0.311167,-0.488121,0.999949,-0.008519,0.005431,0.008514,0.999963,0.000970,-0.005439,-0.000924,0.999985
08802,9.731718,-0.275161,-0.676637,-0.014118,-0.002899,-0.053606,-0.015380,0.001639,0.003313,0.489456,-0.035738,-0.779285,0.097317,-0.002751,-0.006767,1.000000,-0.000077,0.000008,0.000017,-0.999987,-0.000473,0.002719,0.004375,0.055564,-0.311348,-0.501442,0.999947,-0.008752,0.005434,0.008746,0.999961,0.000970,-0.005442,-0.000922,0.999985
08803,9.751031,-0.292486,-0.653426,0.002562,0.021485,-0.035436,-0.007222,0.003361,0.004094,0.481909,-0.028911,-0.773790,0.097510,-0.002923,-0.006536,1.000000,-0.000036,0.000017,0.000020,-0.999986,-0.000483,0.002728,0.004436,0.056782,-0.312352,-0.508435,0.999946,-0.008874,0.005452,0.008868,0.999960,0.000991,-0.005460,-0.000943,0.999985
08804,9.727939,-0.294368,-0.660588,-0.006816,0.020468,-0.057926,-0.005229,0.007778,0.002801,0.481288,-0.022565,-0.783047,0.097279,-0.002942,-0.006610,1.000000,-0.000026,0.000039,0.000014,-0.999986,-0.000497,0.002757,0.004500,0.058320,-0.315696,-0.515797,0.999944,-0.009002,0.005510,0.008997,0.999959,0.001018,-0.005519,-0.000968,0.999984
08805,9.727972,-0.294569,-0.660019,-0.006827,0.020700,-0.057926,-0.006861,0.004285,0.002164,0.484430,-0.034406,-0.776193,0.097280,-0.002945,-0.006602,1.000000,-0.000034,0.000021,0.000011,-0.999986,-0.000500,0.002774,0.004558,0.058722,-0.317599,-0.522520,0.999943,-0.009119,0.005543,0.009114,0.999958,0.001025,-0.005552,-0.000974,0.999984
08806,9.751105,-0.293193,-0.651999,0.002597,0.022206,-0.035437,-0.005384,0.002885,0.002941,0.487366,-0.031061,-0.778875,0.097511,-0.002931,-0.006521,1.000000,-0.000027,0.000014,0.000015,-0.999985,-0.000503,0.002782,0.004626,0.059165,-0.318498,-0.530303,0.999942,-0.009255,0.005559,0.009250,0.999957,0.001033,-0.005568,-0.000981,0.999984
08807,9.687336,-0.283891,-0.617083,0.033662,0.026088,-0.101660,-0.003907,0.001484,0.003718,0.481497,-0.028774,-0.774982,0.096873,-0.002837,-0.006171,1.000000,-0.000020,0.000007,0.000019,-0.999985,-0.000510,0.002783,0.004670,0.059928,-0.318583,-0.535355,0.999941,-0.009343,0.005560,0.009338,0.999956,0.001046,-0.005570,-0.000994,0.999984
08808,9.744253,-0.278053,-0.634221,0.023929,0.014308,-0.043898,-0.001940,0.002461,0.002048,0.482566,-0.040067,-0.778250,0.097442,-0.002780,-0.006343,1.000000,-0.000010,0.000012,0.000010,-0.999985,-0.000511,0.002789,0.004719,0.060010,-0.319319,-0.540968,0.999940,-0.009441,0.005573,0.009436,0.999955,0.001047,-0.005583,-0.000995,0.999984
08809,9.751119,-0.293825,-0.651504,0.002603,0.022916,-0.035439,-0.001606,-0.000053,-0.000260,0.484094,-0.032864,-0.779351,0.097511,-0.002938,-0.006515,1.000000,-0.000008,-0.000000,-0.000001,-0.999985,-0.000497,0.002790,0.004750,0.058433,-0.319426,-0.544513,0.999939,-0.009503,0.005575,0.009498,0.999954,0.001020,-0.005584,-0.000967,0.999984
08810,9.738675,-0.292482,-0.691979,-0.035398,0.007354,-0.045146,0.006526,-0.001771,0.000144,0.483735,-0.034042,-0.779812,0.097387,-0.002925,-0.006919,1.000000,0.000033,-0.000009,0.000001,-0.999985,-0.000486,0.002781,0.004747,0.057202,-0.318385,-0.544145,0.999939,-0.009497,0.005557,0.009491,0.999954,0.000998,-0.005566,-0.000946,0.999984
08811,9.784903,-0.289233,-0.676727,-0.016574,0.010088,-0.000167,0.008724,-0.001324,-0.002938,0.484331,-0.028466,-0.774226,0.097849,-0.002893,-0.006767,1.000000,0.000044,-0.000007,-0.000015,-0.999985,-0.000461,0.002781,0.004725,0.054368,-0.318387,-0.541656,0.999940,-0.009453,0.005557,0.009448,0.999955,0.000949,-0.005566,-0.000896,0.999984
08812,9.744230,-0.277944,-0.634617,0.023946,0.015210,-0.043900,0.006500,-0.005209,-0.000234,0.485330,-0.033956,-0.779203,0.097442,-0.002779,-0.006344,1.000000,0.000033,-0.000026,-0.000001,-0.999985,-0.000441,0.002756,0.004729,0.052028,-0.315541,-0.541994,0.999940,-0.009459,0.005507,0.009454,0.999955,0.000908,-0.005516,-0.000856,0.999984
08813,9.791729,-0.304671,-0.694729,-0.037873,0.018944,0.008292,0.003907,-0.001484,-0.003718,0.482869,-0.028145,-0.777784,0.097917,-0.003048,-0.006947,1.000000,0.000020,-0.000007,-0.000019,-0.999985,-0.000411,0.002756,0.004731,0.048544,-0.315620,-0.542222,0.999940,-0.009463,0.005509,0.009459,0.999955,0.000847,-0.005516,-0.000795,0.999984
08814,9.761758,-0.290059,-0.685139,-0.025961,0.009552,-0.022657,0.004500,-0.001091,-0.007060,0.482555,-0.038842,-0.775555,0.097618,-0.002904,-0.006851,1.000000,0.000022,-0.000005,-0.000035,-0.999985,-0.000365,0.002763,0.004742,0.043355,-0.316443,-0.543518,0.999940,-0.009486,0.005523,0.009482,0.999955,0.000757,-0.005530,-0.000704,0.999984
08815,9.765566,-0.270996,-0.700697,-0.033264,-0.013109,-0.018331,-0.001400,-0.004023,-0.002050,0.489294,-0.036281,-0.780741,0.097656,-0.002711,-0.007005,1.000000,-0.000007,-0.000020,-0.000010,-0.999985,-0.000336,0.002749,0.004771,0.040000,-0.314815,-0.546804,0.999939,-0.009543,0.005495,0.009540,0.999954,0.000698,-0.005501,-0.000646,0.999985
08816,9.731758,-0.275178,-0.676045,-0.014046,0.000349,-0.053605,0.002404,-0.003522,-0.004873,0.481253,-0.031314,-0.780840,0.097318,-0.002754,-0.006759,1.000000,0.000012,-0.000018,-0.000024,-0.999985,-0.000298,0.002740,0.004786,0.035602,-0.313787,-0.548498,0.999939,-0.009573,0.005477,0.009570,0.999954,0.000621,-0.005482,-0.000569,0.999985
08817,9.762463,-0.235886,-0.699638,-0.019228,-0.043956,-0.022461,0.000515,-0.009923,-0.004475,0.487244,-0.025031,-0.780089,0.097625,-0.002361,-0.006992,1.000000,0.000003,-0.000050,-0.000022,-0.999985,-0.000247,0.002702,0.004803,0.029797,-0.309529,-0.550488,0.999939,-0.009608,0.005402,0.009605,0.999954,0.000520,-0.005407,-0.000468,0.999985
08818,9.765480,-0.269819,-0.702348,-0.033237,-0.012416,-0.018330,0.000567,-0.003045,-0.003720,0.482436,-0.033220,-0.772117,0.097655,-0.002700,-0.007022,1.000000,0.000003,-0.000015,-0.000019,-0.999985,-0.000211,0.002695,0.004838,0.025710,-0.308657,-0.554523,0.999939,-0.009678,0.005387,0.009676,0.999953,0.000449,-0.005391,-0.000397,0.999985
08819,9.781711,-0.252225,-0.677787,-0.002521,-0.019323,-0.004298,-0.001425,-0.007462,-0.002427,0.476406,-0.031841,-0.774824,0.097817,-0.002523,-0.006774,1.000000,-0.000007,-0.000037,-0.000012,-0.999985,-0.000174,0.002665,0.004867,0.021428,-0.305277,-0.557750,0.999938,-0.009734,0.005328,0.009732,0.999953,0.000374,-0.005331,-0.000322,0.999986
08820,9.794127,-0.253514,-0.637979,0.035509,-0.003347,0.005405,-0.000386,-0.004363,0.001552,0.476616,-0.030393,-0.784882,0.097941,-0.002534,-0.006378,1.000000,-0.000002,-0.000022,0.000008,-0.999984,-0.000162,0.002642,0.004900,0.019995,-0.302607,-0.561587,0.999938,-0.009801,0.005281,0.009800,0.999952,0.000349,-0.005285,-0.000297,0.999986
08821,9.777833,-0.270868,-0.663512,0.004770,0.004029,-0.008627,-0.001760,-0.004947,-0.000120,0.482044,-0.034487,-0.770127,0.097778,-0.002709,-0.006633,1.000000,-0.000009,-0.000025,-0.000001,-0.999984,-0.000139,0.002619,0.004931,0.017455,-0.300080,-0.565144,0.999938,-0.009863,0.005237,0.009862,0.999951,0.000305,-0.005240,-0.000253,0.999986
08822,9.780847,-0.305334,-0.666101,-0.009249,0.035542,-0.004500,-0.002352,-0.005340,0.003222,0.489712,-0.034106,-0.777836,0.097809,-0.003052,-0.006658,1.000000,-0.000012,-0.000027,0.000016,-0.999984,-0.000132,0.002589,0.004975,0.016616,-0.296635,-0.570178,0.999937,-0.009951,0.005177,0.009950,0.999950,0.000290,-0.005180,-0.000238,0.999987
08823,9.784607,-0.286900,-0.681979,-0.016561,0.012885,-0.000170,-0.005332,-0.005978,0.001291,0.481443,-0.032312,-0.780120,0.097846,-0.002869,-0.006817,1.000000,-0.000027,-0.000030,0.000006,-0.999984,-0.000113,0.002560,0.005025,0.014457,-0.293261,-0.575817,0.999936,-0.010050,0.005118,0.010048,0.999949,0.000252,-0.005121,-0.000201,0.999987
08824,9.727667,-0.293176,-0.665110,-0.006764,0.025101,-0.057937,-0.008878,-0.003570,0.003080,0.482623,-0.028916,-0.781438,0.097277,-0.002931,-0.006649,1.000000,-0.000044,-0.000018,0.000015,-0.999984,-0.000106,0.002536,0.005103,0.013661,-0.290586,-0.584806,0.999935,-0.010206,0.005072,0.010205,0.999948,0.000238,-0.005074,-0.000187,0.999987
08825,9.761407,-0.288954,-0.690579,-0.025967,0.012094,-0.022660,-0.005795,-0.004917,0.004116,0.483840,-0.034903,-0.776147,0.097614,-0.002888,-0.006903,1.000000,-0.000029,-0.000025,0.000021,-0.999984,-0.000102,0.002507,0.005156,0.013205,-0.287181,-0.590846,0.999934,-0.010312,0.005012,0.010311,0.999947,0.000230,-0.005014,-0.000179,0.999987
08826,9.743865,-0.276472,-0.640834,0.023959,0.018411,-0.043905,-0.008749,-0.002116,0.002563,0.484956,-0.040076,-0.781378,0.097439,-0.002764,-0.006407,1.000000,-0.000044,-0.000011,0.000013,-0.999983,-0.000095,0.002492,0.005234,0.012407,-0.285483,-0.599803,0.999933,-0.010468,0.004983,0.010467,0.999945,0.000217,-0.004985,-0.000164,0.999988
08827,9.731377,-0.275451,-0.681403,-0.014084,0.002907,-0.053606,-0.002557,-0.001371,0.005013,0.485028,-0.032324,-0.784812,0.097314,-0.002752,-0.006813,1.000000,-0.000013,-0.000007,0.000025,-0.999983,-0.000103,0.002477,0.005271,0.013311,-0.283778,-0.604091,0.999932,-0.010543,0.004953,0.010542,0.999944,0.000232,-0.004955,-0.000180,0.999988
08828,9.754476,-0.274338,-0.673869,-0.004661,0.004362,-0.031117,-0.002557,-0.001371,0.005013,0.487428,-0.023490,-0.776675,0.097545,-0.002741,-0.006738,1.000000,-0.000013,-0.000007,0.000025,-0.999983,-0.000112,0.002461,0.005315,0.014377,-0.281984,-0.609124,0.999931,-0.010631,0.004922,0.010630,0.999943,0.000251,-0.004924,-0.000199,0.999988
08829,9.754464,-0.274760,-0.673868,-0.004673,0.004595,-0.031117,-0.002300,0.001537,0.003978,0.485096,-0.025207,-0.784818,0.097545,-0.002746,-0.006739,1.000000,-0.000011,0.000008,0.000020,-0.999983,-0.000121,0.002462,0.005351,0.015354,-0.282046,-0.613270,0.999931,-0.010703,0.004923,0.010702,0.999943,0.000268,-0.004925,-0.000215,0.999988
08830,9.761312,-0.290913,-0.691096,-0.025961,0.013276,-0.022661,-0.000925,0.002121,0.005650,0.485750,-0.027973,-0.780461,0.097613,-0.002906,-0.006912,1.000000,-0.000005,0.000011,0.000028,-0.999982,-0.000136,0.002461,0.005403,0.017158,-0.281908,-0.619155,0.999930,-0.010806,0.004920,0.010805,0.999942,0.000299,-0.004923,-0.000246,0.999988
08831,9.791276,-0.305393,-0.700766,-0.037856,0.023169,0.008283,-0.000360,-0.000924,0.001930,0.483395,-0.030325,-0.785418,0.097913,-0.003053,-0.007007,1.000000,-0.000002,-0.000005,0.000010,-0.999982,-0.000132,0.002454,0.005428,0.016611,-0.281092,-0.622066,0.999929,-0.010857,0.004906,0.010855,0.999941,0.000290,-0.004909,-0.000237,0.999988
08832,9.754440,-0.276131,-0.673666,-0.004670,0.005347,-0.031117,-0.008300,0.000589,0.009885,0.490290,-0.038277,-0.771514,0.097545,-0.002757,-0.006737,1.000000,-0.000041,0.000003,0.000049,-0.999982,-0.000163,0.002439,0.005511,0.020199,-0.279344,-0.631558,0.999927,-0.011022,0.004875,0.011021,0.999939,0.000353,-0.004879,-0.000299,0.999988
08833,9.771919,-0.289605,-0.723816,-0.054602,-0.000482,-0.009871,-0.006000,-0.000948,0.005907,0.485847,-0.029378,-0.776305,0.097719,-0.002893,-0.007238,1.000000,-0.000030,-0.000005,0.000030,-0.999982,-0.000174,0.002424,0.005566,0.021520,-0.277674,-0.637856,0.999926,-0.011132,0.004846,0.011131,0.999938,0.000376,-0.004850,-0.000322,0.999988
08834,9.811301,-0.271259,-0.691111,-0.014404,-0.006175,0.026652,-0.000822,0.000136,0.004755,0.478911,-0.030444,-0.779431,0.098113,-0.002710,-0.006911,1.000000,-0.000004,0.000001,0.000024,-0.999981,-0.000185,0.002413,0.005605,0.022770,-0.276428,-0.642308,0.999926,-0.011210,0.004825,0.011208,0.999937,0.000397,-0.004829,-0.000343,0.999988
08835,9.761236,-0.293532,-0.691059,-0.025938,0.014444,-0.022663,0.004124,0.001750,0.005016,0.486842,-0.030650,-0.773445,0.097612,-0.002933,-0.006912,1.000000,0.000021,0.000009,0.000025,-0.999981,-0.000201,0.002413,0.005609,0.024615,-0.276385,-0.642832,0.999925,-0.011219,0.004824,0.011217,0.999937,0.000430,-0.004828,-0.000375,0.999988
08836,9.765053,-0.275409,-0.706106,-0.033245,-0.008202,-0.018326,0.005858,0.003257,0.004758,0.486170,-0.030333,-0.783678,0.097650,-0.002752,-0.007063,1.000000,0.000029,0.000016,0.000024,-0.999981,-0.000219,0.002419,0.005617,0.026698,-0.277066,-0.643731,0.999925,-0.011235,0.004836,0.011233,0.999937,0.000466,-0.004841,-0.000412,0.999988
08837,9.754398,-0.278894,-0.673130,-0.004635,0.006498,-0.031118,0.007336,0.001856,0.005534,0.483832,-0.031956,-0.778105,0.097544,-0.002786,-0.006732,1.000000,0.000037,0.000009,0.000028,-0.999981,-0.000239,0.002418,0.005606,0.028977,-0.276971,-0.642444,0.999925,-0.011212,0.004834,0.011210,0.999937,0.000506,-0.004839,-0.000452,0.999988
08838,9.754395,-0.279397,-0.672958,-0.004627,0.006732,-0.031118,0.005961,0.001273,0.003862,0.483678,-0.029190,-0.776134,0.097544,-0.002792,-0.006730,1.000000,0.000030,0.000006,0.000019,-0.999981,-0.000250,0.002417,0.005613,0.030183,-0.276802,-0.643273,0.999925,-0.011227,0.004831,0.011224,0.999937,0.000527,-0.004837,-0.000473,0.999988
08839,9.765053,-0.276797,-0.705557,-0.033261,-0.007497,-0.018325,0.004586,0.000690,0.002191,0.479242,-0.031896,-0.779212,0.097651,-0.002767,-0.007056,1.000000,0.000023,0.000003,0.000011,-0.999981,-0.000251,0.002417,0.005614,0.030324,-0.276790,-0.643397,0.999925,-0.011229,0.004831,0.011227,0.999937,0.000529,-0.004837,-0.000475,0.999988
08840,9.761229,-0.295802,-0.690202,-0.025938,0.015623,-0.022665,0.007438,-0.000128,0.004639,0.486686,-0.027117,-0.787637,0.097612,-0.002956,-0.006902,1.000000,0.000037,-0.000001,0.000023,-0.999981,-0.000263,0.002408,0.005613,0.031694,-0.275773,-0.643283,0.999925,-0.011227,0.004813,0.011225,0.999937,0.000553,-0.004819,-0.000499,0.999988
08841,9.757402,-0.314810,-0.674851,-0.018623,0.038738,-0.027005,0.011241,0.000371,0.001815,0.483729,-0.037759,-0.778587,0.097574,-0.003147,-0.006749,1.000000,0.000056,0.000002,0.000009,-0.999981,-0.000265,0.002407,0.005581,0.031851,-0.275674,-0.639585,0.999926,-0.011162,0.004811,0.011160,0.999938,0.000556,-0.004817,-0.000502,0.999988
08842,9.744930,-0.313786,-0.715216,-0.056665,0.023261,-0.036701,0.009276,-0.000605,0.003486,0.489893,-0.029348,-0.784952,0.097449,-0.003136,-0.007152,1.000000,0.000046,-0.000003,0.000017,-0.999982,-0.000271,0.002398,0.005570,0.032640,-0.274623,-0.638328,0.999926,-0.011141,0.004793,0.011138,0.999938,0.000570,-0.004799,-0.000516,0.999988
08843,9.765015,-0.278277,-0.705502,-0.033286,-0.006560,-0.018324,0.014325,-0.000976,0.002851,0.483139,-0.031275,-0.783438,0.097650,-0.002781,-0.007055,1.000000,0.000072,-0.000005,0.000014,-0.999982,-0.000276,0.002389,0.005522,0.033194,-0.273588,-0.632889,0.999928,-0.011046,0.004775,0.011043,0.999939,0.000579,-0.004781,-0.000527,0.999988
08844,9.757362,-0.315815,-0.674951,-0.018620,0.039441,-0.027008,0.012950,-0.001560,0.001180,0.489294,-0.029344,-0.775843,0.097574,-0.003157,-0.006749,1.000000,0.000065,-0.000008,0.000006,-0.999982,-0.000272,0.002380,0.005495,0.032636,-0.272497,-0.629794,0.999928,-0.010992,0.004756,0.010989,0.999939,0.000570,-0.004762,-0.000517,0.999989
08845,9.744872,-0.314804,-0.715569,-0.056679,0.023975,-0.036703,0.019117,-0.004255,0.003252,0.483782,-0.034179,-0.783244,0.097449,-0.003146,-0.007154,1.000000,0.000096,-0.000021,0.000016,-0.999982,-0.000274,0.002355,0.005424,0.032917,-0.269633,-0.621579,0.999930,-0.010848,0.004706,0.010846,0.999941,0.000575,-0.004712,-0.000523,0.999989
08846,9.761122,-0.297858,-0.690823,-0.025937,0.017029,-0.022667,0.017872,-0.003385,0.001063,0.487947,-0.029023,-0.777941,0.097611,-0.002977,-0.006907,1.000000,0.000089,-0.000017,0.000005,-0.999983,-0.000268,0.002336,0.005370,0.032174,-0.267491,-0.615418,0.999931,-0.010741,0.004669,0.010738,0.999942,0.000562,-0.004674,-0.000511,0.999989
08847,9.768721,-0.261043,-0.721849,-0.040616,-0.028492,-0.013980,0.017152,-0.005230,0.004923,0.473741,-0.030338,-0.780981,0.097687,-0.002607,-0.007216,1.000000,0.000086,-0.000026,0.000025,-0.999983,-0.000276,0.002303,0.005308,0.033054,-0.263754,-0.608379,0.999933,-0.010618,0.004603,0.010615,0.999943,0.000577,-0.004609,-0.000528,0.999989
08848,9.761834,-0.245703,-0.705015,-0.019337,-0.036679,-0.022432,0.016240,-0.006877,0.000427,0.485091,-0.025798,-0.791185,0.097619,-0.002456,-0.007047,1.000000,0.000081,-0.000034,0.000002,-0.999984,-0.000259,0.002271,0.005262,0.031101,-0.260103,-0.603085,0.999934,-0.010526,0.004540,0.010523,0.999944,0.000543,-0.004545,-0.000495,0.999990
08849,9.781889,-0.210348,-0.695858,0.004029,-0.066507,-0.004049,0.011513,-0.005249,0.008900,0.483078,-0.024971,-0.775842,0.097819,-0.002099,-0.006956,1.000000,0.000058,-0.000026,0.000045,-0.999984,-0.000284,0.002231,0.005230,0.033851,-0.255514,-0.599433,0.999935,-0.010462,0.004460,0.010459,0.999945,0.000591,-0.004465,-0.000544,0.999990
08850,9.784829,-0.245448,-0.698694,-0.009943,-0.034924,0.000059,0.007000,-0.011364,0.005441,0.485063,-0.032277,-0.777468,0.097849,-0.002452,-0.006981,1.000000,0.000035,-0.000057,0.000027,-0.999984,-0.000277,0.002169,0.005238,0.033070,-0.248396,-0.600331,0.999936,-0.010477,0.004335,0.010475,0.999945,0.000577,-0.004341,-0.000532,0.999990
08851,9.777919,-0.230179,-0.682285,0.011337,-0.043128,-0.008392,0.000832,-0.008669,0.003369,0.484672,-0.025567,-0.778662,0.097780,-0.002300,-0.006819,1.000000,0.000004,-0.000043,0.000017,-0.999984,-0.000266,0.002123,0.005257,0.031706,-0.243150,-0.602490,0.999936,-0.010515,0.004244,0.010513,0.999945,0.000553,-0.004249,-0.000509,0.999991
08852,9.774041,-0.249214,-0.667674,0.018690,-0.020005,-0.012737,-0.001106,-0.006205,0.005416,0.484109,-0.030008,-0.778127,0.097741,-0.002490,-0.006674,1.000000,-0.000006,-0.000031,0.000027,-0.999984,-0.000266,0.002084,0.005302,0.031776,-0.238632,-0.607607,0.999935,-0.010604,0.004165,0.010602,0.999944,0.000555,-0.004171,-0.000510,0.999991
08853,9.773992,-0.249675,-0.668221,0.018677,-0.019773,-0.012737,-0.004190,-0.004858,0.004380,0.491058,-0.041001,-0.775493,0.097740,-0.002495,-0.006680,1.000000,-0.000021,-0.000024,0.000022,-0.999984,-0.000264,0.002054,0.005347,0.031536,-0.235201,-0.612742,0.999934,-0.010694,0.004105,0.010692,0.999943,0.000550,-0.004111,-0.000506,0.999991
08854,9.723881,-0.271656,-0.668663,0.007215,0.000812,-0.062061,-0.010256,-0.004148,0.001414,0.485127,-0.029241,-0.781391,0.097239,-0.002716,-0.006684,1.000000,-0.000051,-0.000021,0.000007,-0.999983,-0.000249,0.002030,0.005429,0.029741,-0.232486,-0.622155,0.999933,-0.010858,0.004058,0.010856,0.999941,0.000519,-0.004063,-0.000475,0.999992
08855,9.749983,-0.304663,-0.663423,0.002678,0.033610,-0.035470,-0.007504,-0.002979,0.004756,0.487040,-0.027614,-0.775665,0.097500,-0.003045,-0.006633,1.000000,-0.000038,-0.000015,0.000024,-0.999983,-0.000250,0.002008,0.005491,0.029954,-0.229975,-0.629231,0.999932,-0.010982,0.004014,0.010980,0.999940,0.000523,-0.004019,-0.000479,0.999992
08856,9.723821,-0.272220,-0.669305,0.007221,0.001292,-0.062061,-0.000488,-0.002376,0.002449,0.486251,-0.033549,-0.772174,0.097238,-0.002721,-0.006692,1.000000,-0.000002,-0.000012,0.000012,-0.999983,-0.000244,0.001992,0.005532,0.029268,-0.228105,-0.634023,0.999931,-0.011065,0.003981,0.011064,0.999939,0.000511,-0.003987,-0.000467,0.999992
08857,9.734438,-0.269656,-0.702227,-0.021429,-0.012901,-0.049261,0.000887,-0.001792,0.004120,0.479897,-0.029451,-0.781957,0.097344,-0.002695,-0.007021,1.000000,0.000004,-0.000009,0.000021,-0.999983,-0.000249,0.001977,0.005552,0.029752,-0.226364,-0.636300,0.999931,-0.011105,0.003951,0.011103,0.999938,0.000519,-0.003956,-0.000475,0.999992
08858,9.753742,-0.286947,-0.679223,-0.004654,0.011452,-0.031122,-0.000101,0.001985,0.000894,0.490676,-0.030980,-0.773259,0.097537,-0.002869,-0.006793,1.000000,-0.000001,0.000010,0.000004,-0.999982,-0.000244,0.001984,0.005587,0.029285,-0.227218,-0.640287,0.999930,-0.011175,0.003966,0.011173,0.999937,0.000511,-0.003971,-0.000467,0.999992
08859,9.734425,-0.270087,-0.702238,-0.021437,-0.012435,-0.049261,0.007774,-0.002643,0.002330,0.492064,-0.025772,-0.779491,0.097344,-0.002699,-0.007021,1.000000,0.000039,-0.000013,0.000012,-0.999983,-0.000242,0.001968,0.005572,0.028935,-0.225403,-0.638540,0.999930,-0.011144,0.003934,0.011142,0.999938,0.000505,-0.003939,-0.000461,0.999992
08860,9.787477,-0.283070,-0.704507,-0.023826,-0.001234,0.004166,0.010756,-0.002006,0.004260,0.481248,-0.028457,-0.779860,0.097875,-0.002828,-0.007044,1.000000,0.000054,-0.000010,0.000021,-0.999983,-0.000249,0.001948,0.005560,0.029771,-0.223118,-0.637219,0.999931,-0.011121,0.003894,0.011119,0.999938,0.000520,-0.003900,-0.000476,0.999992
08861,9.753684,-0.287917,-0.679639,-0.004617,0.012169,-0.031123,0.009381,-0.002590,0.002589,0.482834,-0.033087,-0.779741,0.097537,-0.002878,-0.006795,1.000000,0.000047,-0.000013,0.000013,-0.999983,-0.000248,0.001932,0.005537,0.029638,-0.221276,-0.634566,0.999931,-0.011075,0.003862,0.011073,0.999939,0.000517,-0.003867,-0.000474,0.999992
08862,9.760471,-0.304058,-0.697291,-0.025917,0.020860,-0.022674,0.009021,-0.003512,0.004520,0.483012,-0.030367,-0.780489,0.097605,-0.003038,-0.006971,1.000000,0.000045,-0.000018,0.000023,-0.999983,-0.000254,0.001909,0.005527,0.030306,-0.218547,-0.633460,0.999932,-0.011056,0.003814,0.011054,0.999939,0.000529,-0.003820,-0.000487,0.999993
08863,9.753611,-0.288804,-0.680318,-0.004640,0.012639,-0.031124,0.010729,-0.005444,0.003884,0.481277,-0.030042,-0.770801,0.097536,-0.002886,-0.006801,1.000000,0.000054,-0.000027,0.000019,-0.999983,-0.000254,0.001877,0.005498,0.030320,-0.214912,-0.630043,0.999933,-0.010996,0.003751,0.010994,0.999939,0.000529,-0.003757,-0.000488,0.999993
08864,9.779689,-0.321941,-0.675228,-0.009145,0.045453,-0.004540,0.009353,-0.006028,0.002214,0.477936,-0.028492,-0.778619,0.097797,-0.003218,-0.006749,1.000000,0.000047,-0.000030,0.000011,-0.999983,-0.000245,0.001845,0.005486,0.029232,-0.211239,-0.628670,0.999933,-0.010972,0.003687,0.010970,0.999940,0.000510,-0.003692,-0.000470,0.999993
08865,9.730383,-0.291173,-0.689012,-0.014070,0.011862,-0.053613,0.017157,-0.005232,0.004919,0.487294,-0.034641,-0.774461,0.097304,-0.002909,-0.006888,1.000000,0.000086,-0.000026,0.000025,-0.999984,-0.000253,0.001812,0.005424,0.030116,-0.207501,-0.621629,0.999935,-0.010849,0.003622,0.010847,0.999941,0.000526,-0.003627,-0.000486,0.999993
08866,9.764101,-0.287239,-0.714505,-0.033292,-0.001065,-0.018322,0.015910,-0.004363,0.002730,0.483513,-0.032817,-0.779794,0.097641,-0.002870,-0.007143,1.000000,0.000080,-0.000022,0.000014,-0.999984,-0.000252,0.001787,0.005379,0.029978,-0.204610,-0.616409,0.999936,-0.010758,0.003571,0.010756,0.999942,0.000523,-0.003577,-0.000485,0.999993
08867,9.744750,-0.270536,-0.737903,-0.050087,-0.024946,-0.036456,0.011090,-0.004522,0.001954,0.484680,-0.032320,-0.772540,0.097448,-0.002704,-0.007377,1.000000,0.000055,-0.000023,0.000010,-0.999984,-0.000245,0.001763,0.005347,0.029177,-0.201875,-0.612721,0.999937,-0.010694,0.003523,0.010692,0.999943,0.000509,-0.003529,-0.000472,0.999994
08868,9.784154,-0.252011,-0.705773,-0.009947,-0.030680,0.000073,0.007389,-0.007002,0.003887,0.483305,-0.032543,-0.774390,0.097842,-0.002518,-0.007054,1.000000,0.000037,-0.000035,0.000019,-0.999984,-0.000242,0.001723,0.005343,0.028759,-0.197271,-0.612316,0.999937,-0.010687,0.003443,0.010685,0.999943,0.000502,-0.003448,-0.000465,0.999994
08869,9.790915,-0.268141,-0.723667,-0.031245,-0.021982,0.008521,0.007647,-0.004095,0.002849,0.483279,-0.033451,-0.779286,0.097909,-0.002680,-0.007235,1.000000,0.000038,-0.000020,0.000014,-0.999984,-0.000239,0.001699,0.005328,0.028374,-0.194573,-0.610640,0.999937,-0.010657,0.003396,0.010656,0.999943,0.000495,-0.003401,-0.000459,0.999994
08870,9.784077,-0.252783,-0.706569,-0.009958,-0.030220,0.000074,0.002495,-0.001736,0.004379,0.487105,-0.027027,-0.785221,0.097841,-0.002526,-0.007065,1.000000,0.000012,-0.000009,0.000022,-0.999984,-0.000245,0.001683,0.005349,0.029127,-0.192716,-0.613047,0.999937,-0.010699,0.003364,0.010698,0.999943,0.000508,-0.003369,-0.000472,0.999994
08871,9.774538,-0.286150,-0.749092,-0.061961,-0.014301,-0.005518,0.004691,-0.001295,0.001294,0.478642,-0.030444,-0.782838,0.097745,-0.002861,-0.007490,1.000000,0.000023,-0.000006,0.000006,-0.999984,-0.000239,0.001675,0.005349,0.028378,-0.191837,-0.613041,0.999937,-0.010699,0.003348,0.010698,0.999943,0.000495,-0.003353,-0.000459,0.999994
08872,9.740786,-0.290752,-0.723856,-0.042760,-0.000899,-0.040810,-0.003646,0.004398,0.002681,0.480363,-0.026732,-0.779055,0.097408,-0.002906,-0.007241,1.000000,-0.000018,0.000022,0.000013,-0.999984,-0.000245,0.001692,0.005406,0.029106,-0.193786,-0.619589,0.999936,-0.010814,0.003382,0.010812,0.999941,0.000508,-0.003387,-0.000471,0.999994
08873,9.717652,-0.292502,-0.731431,-0.052194,-0.001913,-0.063298,0.001349,-0.002854,0.001296,0.482983,-0.029507,-0.783181,0.097177,-0.002924,-0.007313,1.000000,0.000007,-0.000014,0.000006,-0.999984,-0.000234,0.001677,0.005423,0.027886,-0.192075,-0.621466,0.999936,-0.010846,0.003352,0.010845,0.999941,0.000487,-0.003357,-0.000450,0.999994
08874,9.770700,-0.305123,-0.733834,-0.054655,0.009312,-0.009876,0.001809,-0.003918,-0.001528,0.486592,-0.036907,-0.778079,0.097707,-0.003052,-0.007336,1.000000,0.000009,-0.000020,-0.000008,-0.999984,-0.000208,0.001663,0.005450,0.024851,-0.190462,-0.624581,0.999935,-0.010901,0.003324,0.010899,0.999941,0.000434,-0.003329,-0.000397,0.999994
08875,9.747530,-0.306583,-0.742002,-0.064088,0.008299,-0.032364,-0.000056,-0.006877,-0.000748,0.482615,-0.028779,-0.777519,0.097476,-0.003066,-0.007417,1.000000,-0.000000,-0.000034,-0.000004,-0.999984,-0.000180,0.001633,0.005472,0.021637,-0.187039,-0.627107,0.999935,-0.010945,0.003264,0.010944,0.999940,0.000378,-0.003268,-0.000342,0.999995
08876,9.800559,-0.319093,-0.744697,-0.066515,0.019501,0.021058,0.005123,-0.005798,-0.001904,0.490047,-0.032838,-0.780556,0.098006,-0.003192,-0.007444,1.000000,0.000026,-0.000029,-0.000010,-0.999984,-0.000151,0.001609,0.005478,0.018311,-0.184316,-0.627741,0.999935,-0.010956,0.003217,0.010955,0.999940,0.000320,-0.003220,-0.000284,0.999995
08877,9.797540,-0.284686,-0.743135,-0.052619,-0.011598,0.016971,0.008236,-0.003706,-0.000495,0.486953,-0.036136,-0.772964,0.097976,-0.002847,-0.007430,1.000000,0.000041,-0.000019,-0.000002,-0.999984,-0.000133,0.001594,0.005459,0.016258,-0.182531,-0.625595,0.999935,-0.010918,0.003186,0.010918,0.999940,0.000284,-0.003189,-0.000249,0.999995
08878,9.789878,-0.321810,-0.712849,-0.037831,0.034344,0.008250,0.006730,-0.005745,-0.001646,0.477977,-0.034796,-0.786459,0.097899,-0.003219,-0.007126,1.000000,0.000034,-0.000029,-0.000008,-0.999984,-0.000107,0.001568,0.005456,0.013202,-0.179618,-0.625267,0.999936,-0.010913,0.003135,0.010912,0.999940,0.000230,-0.003137,-0.000196,0.999995
08879,9.774353,-0.286056,-0.751535,-0.062018,-0.012391,-0.005516,0.010331,-0.001279,-0.002687,0.490438,-0.029802,-0.780342,0.097744,-0.002861,-0.007515,1.000000,0.000052,-0.000006,-0.000013,-0.999984,-0.000084,0.001568,0.005427,0.010587,-0.179588,-0.621874,0.999936,-0.010853,0.003134,0.010853,0.999941,0.000185,-0.003136,-0.000151,0.999995
08880,9.763718,-0.288787,-0.719101,-0.033376,0.002223,-0.018323,0.004894,-0.005265,-0.000492,0.485907,-0.020719,-0.775330,0.097637,-0.002888,-0.007189,1.000000,0.000024,-0.000026,-0.000002,-0.999984,-0.000062,0.001545,0.005435,0.008091,-0.176993,-0.622778,0.999936,-0.010869,0.003089,0.010869,0.999941,0.000141,-0.003090,-0.000108,0.999995
08881,9.790636,-0.268770,-0.727199,-0.031345,-0.019152,0.008527,0.007777,-0.002641,0.002329,0.482383,-0.033309,-0.769909,0.097906,-0.002686,-0.007271,1.000000,0.000039,-0.000013,0.000012,-0.999984,-0.000059,0.001529,0.005419,0.007743,-0.175179,-0.621030,0.999937,-0.010839,0.003057,0.010838,0.999941,0.000135,-0.003059,-0.000102,0.999995
08882,9.783822,-0.253310,-0.709898,-0.010046,-0.027375,0.000083,0.001147,0.001118,0.003082,0.481325,-0.034714,-0.780356,0.097838,-0.002532,-0.007100,1.000000,0.000006,0.000006,0.000015,-0.999984,-0.000063,0.001528,0.005454,0.008164,-0.175012,-0.624977,0.999936,-0.010908,0.003055,0.010907,0.999941,0.000142,-0.003056,-0.000109,0.999995
08883,9.750090,-0.257870,-0.684502,0.009179,-0.014015,-0.035213,0.001764,0.004945,0.000112,0.484630,-0.040119,-0.775719,0.097501,-0.002579,-0.006847,1.000000,0.000009,0.000025,0.000001,-0.999984,-0.000061,0.001551,0.005469,0.007973,-0.177706,-0.626698,0.999935,-0.010938,0.003102,0.010937,0.999940,0.000139,-0.003103,-0.000105,0.999995
08884,9.746309,-0.276475,-0.668646,0.016560,0.009041,-0.039576,0.001764,0.004945,0.000112,0.484531,-0.034817,-0.786977,0.097463,-0.002765,-0.006689,1.000000,0.000009,0.000025,0.000001,-0.999984,-0.000061,0.001574,0.005487,0.007987,-0.180339,-0.628791,0.999935,-0.010974,0.003148,0.010974,0.999940,0.000139,-0.003149,-0.000105,0.999995
08885,9.716404,-0.262529,-0.658355,0.028403,-0.000463,-0.070508,0.002681,0.006596,0.004606,0.484718,-0.033001,-0.775481,0.097164,-0.002623,-0.006587,1.000000,0.000013,0.000033,0.000023,-0.999984,-0.000083,0.001597,0.005499,0.010571,-0.182964,-0.630204,0.999934,-0.010999,0.003193,0.010998,0.999939,0.000184,-0.003195,-0.000149,0.999995
08886,9.742549,-0.295724,-0.652154,0.023931,0.032348,-0.043941,0.002782,0.004610,0.003713,0.477518,-0.028946,-0.786178,0.097425,-0.002955,-0.006524,1.000000,0.000014,0.000023,0.000019,-0.999983,-0.000099,0.001612,0.005519,0.012349,-0.184673,-0.632443,0.999934,-0.011038,0.003223,0.011037,0.999939,0.000216,-0.003225,-0.000180,0.999995
08887,9.786957,-0.288865,-0.709369,-0.023983,0.005095,0.004164,0.004648,0.007569,0.002933,0.484060,-0.027378,-0.778858,0.097869,-0.002887,-0.007097,1.000000,0.000023,0.000038,0.000015,-0.999983,-0.000116,0.001643,0.005521,0.014334,-0.188169,-0.632680,0.999934,-0.011042,0.003284,0.011041,0.999939,0.000250,-0.003287,-0.000214,0.999995
08888,9.763864,-0.290734,-0.716334,-0.033439,0.004100,-0.018324,-0.005353,0.006331,0.003314,0.486750,-0.036997,-0.773193,0.097638,-0.002906,-0.007166,1.000000,-0.000027,0.000032,0.000017,-0.999983,-0.000128,0.001668,0.005587,0.015723,-0.191053,-0.640197,0.999932,-0.011173,0.003334,0.011172,0.999938,0.000274,-0.003337,-0.000237,0.999994
08889,9.803356,-0.272119,-0.683160,0.006672,-0.001658,0.018208,-0.008696,0.004772,0.003317,0.482315,-0.019169,-0.786312,0.098033,-0.002720,-0.006834,1.000000,-0.000043,0.000024,0.000017,-0.999983,-0.000137,0.001685,0.005655,0.016747,-0.192976,-0.648025,0.999930,-0.011310,0.003368,0.011309,0.999936,0.000292,-0.003371,-0.000254,0.999994
08890,9.784095,-0.255293,-0.705421,-0.010143,-0.025509,0.000087,-0.018281,0.011333,0.002513,0.481291,-0.029228,-0.779864,0.097841,-0.002552,-0.007060,1.000000,-0.000091,0.000057,0.000013,-0.999982,-0.000149,0.001733,0.005787,0.018204,-0.198490,-0.663138,0.999927,-0.011574,0.003464,0.011573,0.999933,0.000318,-0.003468,-0.000278,0.999994
08891,9.740890,-0.292852,-0.721598,-0.042883,0.003576,-0.040812,-0.011493,0.012465,0.001615,0.486679,-0.027704,-0.777351,0.097408,-0.002928,-0.007222,1.000000,-0.000057,0.000062,0.000008,-0.999981,-0.000162,0.001789,0.005869,0.019824,-0.204869,-0.672622,0.999925,-0.011739,0.003576,0.011738,0.999931,0.000346,-0.003579,-0.000304,0.999994
08892,9.751600,-0.290044,-0.753325,-0.071548,-0.010530,-0.028001,-0.008078,0.008600,0.000347,0.486418,-0.029245,-0.781738,0.097516,-0.002901,-0.007537,1.000000,-0.000040,0.000043,0.000002,-0.999981,-0.000164,0.001828,0.005948,0.020019,-0.209373,-0.681666,0.999923,-0.011897,0.003654,0.011896,0.999929,0.000349,-0.003658,-0.000306,0.999993
08893,9.741024,-0.292772,-0.719823,-0.042891,0.004062,-0.040812,-0.002797,0.007693,-0.001701,0.483548,-0.027194,-0.774409,0.097410,-0.002929,-0.007202,1.000000,-0.000014,0.000038,-0.000009,-0.999980,-0.000157,0.001868,0.005986,0.019248,-0.213912,-0.685963,0.999921,-0.011972,0.003733,0.011971,0.999928,0.000336,-0.003737,-0.000291,0.999993
08894,9.764202,-0.291057,-0.711572,-0.033455,0.005562,-0.018324,-0.004662,0.004734,-0.000921,0.480460,-0.027096,-0.782982,0.097642,-0.002911,-0.007118,1.000000,-0.000023,0.000024,-0.000005,-0.999980,-0.000147,0.001891,0.006047,0.018101,-0.216570,-0.693000,0.999920,-0.012095,0.003780,0.012094,0.999927,0.000316,-0.003783,-0.000270,0.999993
08895,9.734291,-0.276769,-0.701486,-0.021617,-0.003953,-0.049254,-0.004792,0.003281,-0.000402,0.487754,-0.027297,-0.768374,0.097343,-0.002768,-0.007016,1.000000,-0.000024,0.000016,-0.000002,-0.999980,-0.000137,0.001908,0.006095,0.017006,-0.218485,-0.698417,0.999918,-0.012189,0.003813,0.012188,0.999926,0.000297,-0.003817,-0.000250,0.999993
08896,9.727508,-0.260890,-0.683759,-0.000329,-0.012203,-0.057696,-0.001218,0.004307,-0.001816,0.484817,-0.030963,-0.780632,0.097275,-0.002610,-0.006840,1.000000,-0.000006,0.000022,-0.000009,-0.999979,-0.000123,0.001930,0.006139,0.015417,-0.221084,-0.703507,0.999917,-0.012278,0.003859,0.012277,0.999925,0.000269,-0.003862,-0.000222,0.999993
08897,9.769964,-0.276127,-0.652758,0.025907,0.013379,-0.017092,-0.007775,0.002643,-0.002332,0.482131,-0.032222,-0.774297,0.097700,-0.002763,-0.006529,1.000000,-0.000039,0.000013,-0.000012,-0.999979,-0.000102,0.001947,0.006200,0.013035,-0.223066,-0.710536,0.999916,-0.012401,0.003893,0.012400,0.999923,0.000228,-0.003896,-0.000179,0.999992
08898,9.745028,-0.273207,-0.733234,-0.050278,-0.017582,-0.036441,-0.005808,0.003617,-0.004004,0.484097,-0.030826,-0.785718,0.097450,-0.002734,-0.007334,1.000000,-0.000029,0.000018,-0.000020,-0.999978,-0.000076,0.001971,0.006261,0.010088,-0.225808,-0.717516,0.999914,-0.012523,0.003941,0.012522,0.999922,0.000176,-0.003943,-0.000127,0.999992
08899,9.734406,-0.275706,-0.700309,-0.021616,-0.003004,-0.049254,-0.002854,0.000816,-0.002449,0.477693,-0.031074,-0.774681,0.097344,-0.002758,-0.007003,1.000000,-0.000014,0.000004,-0.000012,-0.999978,-0.000053,0.001980,0.006298,0.007472,-0.226842,-0.721699,0.999913,-0.012596,0.003959,0.012595,0.999921,0.000130,-0.003960,-0.000081,0.999992
08900,9.745065,-0.272465,-0.733010,-0.050308,-0.017113,-0.036440,-0.002393,-0.000249,-0.005273,0.491084,-0.025815,-0.782107,0.097451,-0.002727,-0.007330,1.000000,-0.000012,-0.000001,-0.000026,-0.999978,-0.000015,0.001989,0.006340,0.003168,-0.227939,-0.726576,0.999912,-0.012681,0.003978,0.012681,0.999920,0.000055,-0.003979,-0.000005,0.999992
08901,9.768212,-0.270346,-0.725308,-0.040896,-0.015629,-0.013952,-0.002263,0.001205,-0.005792,0.477355,-0.031935,-0.776614,0.097682,-0.002706,-0.007254,1.000000,-0.000011,0.000006,-0.000029,-0.999978,0.000023,0.002006,0.006373,-0.001117,-0.229887,-0.730287,0.999911,-0.012745,0.004012,0.012746,0.999919,-0.000019,-0.004012,0.000071,0.999992
08902,9.768248,-0.269701,-0.725066,-0.040891,-0.015384,-0.013952,0.003046,0.003738,-0.007464,0.484198,-0.027425,-0.784012,0.097682,-0.002701,-0.007253,1.000000,0.000015,0.000019,-0.000037,-0.999977,0.000062,0.002037,0.006392,-0.005577,-0.233436,-0.732436,0.999910,-0.012783,0.004074,0.012783,0.999918,-0.000097,-0.004073,0.000149,0.999992
08903,9.748142,-0.304923,-0.734604,-0.064187,0.014963,-0.032373,0.004495,-0.001101,-0.007061,0.483652,-0.032183,-0.781520,0.097481,-0.003053,-0.007346,1.000000,0.000022,-0.000006,-0.000035,-0.999977,0.000107,0.002045,0.006390,-0.010731,-0.234423,-0.732196,0.999910,-0.012779,0.004091,0.012780,0.999918,-0.000187,-0.004089,0.000240,0.999992
08904,9.755807,-0.267207,-0.765365,-0.079014,-0.030491,-0.023623,0.009085,-0.000410,-0.004872,0.484942,-0.025567,-0.775254,0.097558,-0.002674,-0.007654,1.000000,0.000045,-0.000002,-0.000024,-0.999978,0.000139,0.002052,0.006378,-0.014397,-0.235289,-0.730798,0.999910,-0.012754,0.004107,0.012756,0.999919,-0.000251,-0.004103,0.000304,0.999992
08905,9.794433,-0.301017,-0.719121,-0.045355,0.017937,0.012601,0.010259,0.004146,-0.001415,0.484262,-0.025472,-0.770057,0.097944,-0.003010,-0.007193,1.000000,0.000051,0.000021,-0.000007,-0.999978,0.000146,0.002075,0.006350,-0.015201,-0.237879,-0.727589,0.999911,-0.012698,0.004152,0.012700,0.999919,-0.000265,-0.004148,0.000318,0.999991
08906,9.791470,-0.266478,-0.716730,-0.031467,-0.013165,0.008536,0.010720,0.003082,-0.004239,0.481805,-0.026329,-0.782108,0.097915,-0.002666,-0.007169,1.000000,0.000054,0.000015,-0.000021,-0.999978,0.000169,0.002095,0.006335,-0.017852,-0.240242,-0.725878,0.999911,-0.012669,0.004193,0.012670,0.999920,-0.000312,-0.004189,0.000365,0.999991
08907,9.772197,-0.249267,-0.739447,-0.048318,-0.037024,-0.009574,0.008523,0.002640,-0.001155,0.481853,-0.027190,-0.779173,0.097722,-0.002493,-0.007396,1.000000,0.000043,0.000013,-0.000006,-0.999978,0.000178,0.002111,0.006315,-0.018910,-0.241975,-0.723647,0.999911,-0.012630,0.004223,0.012631,0.999920,-0.000330,-0.004219,0.000383,0.999991
08908,9.788515,-0.231936,-0.714211,-0.017643,-0.044040,0.004475,0.010001,0.001240,-0.000377,0.488920,-0.030569,-0.783406,0.097885,-0.002319,-0.007143,1.000000,0.000050,0.000006,-0.000002,-0.999978,0.000187,0.002118,0.006303,-0.019891,-0.242801,-0.722228,0.999912,-0.012605,0.004238,0.012606,0.999920,-0.000347,-0.004233,0.000401,0.999991
08909,9.765416,-0.233519,-0.721495,-0.027081,-0.045054,-0.018011,0.008551,0.006079,-0.000782,0.482228,-0.029095,-0.780672,0.097654,-0.002335,-0.007218,1.000000,0.000043,0.000030,-0.000004,-0.999978,0.000188,0.002148,0.006284,-0.020025,-0.246286,-0.720053,0.999912,-0.012567,0.004298,0.012568,0.999921,-0.000350,-0.004294,0.000403,0.999991
08910,9.797229,-0.251688,-0.657573,0.027875,-0.005155,0.009769,0.005439,0.003987,-0.002192,0.479803,-0.032624,-0.782440,0.097972,-0.002518,-0.006578,1.000000,0.000027,0.000020,-0.000011,-0.999978,0.000201,0.002170,0.006292,-0.021495,-0.248847,-0.720980,0.999911,-0.012583,0.004343,0.012585,0.999921,-0.000375,-0.004338,0.000430,0.999990
08911,9.754837,-0.236160,-0.687827,0.001594,-0.030264,-0.030826,0.000157,0.004892,-0.000146,0.487217,-0.027661,-0.780332,0.097548,-0.002362,-0.006881,1.000000,0.000001,0.000024,-0.000001,-0.999978,0.000205,0.002194,0.006315,-0.021900,-0.251568,-0.723606,0.999911,-0.012629,0.004391,0.012631,0.999920,-0.000382,-0.004385,0.000438,0.999990
08912,9.757877,-0.270660,-0.689187,-0.012252,0.001338,-0.026767,-0.007063,0.008263,0.003945,0.480644,-0.035982,-0.782017,0.097579,-0.002705,-0.006896,1.000000,-0.000035,0.000041,0.000020,-0.999977,0.000186,0.002226,0.006387,-0.019730,-0.255166,-0.731862,0.999909,-0.012773,0.004453,0.012775,0.999918,-0.000344,-0.004449,0.000401,0.999990
08913,9.751106,-0.254971,-0.670983,0.009000,-0.006956,-0.035205,-0.007719,0.009519,-0.001588,0.488767,-0.031292,-0.778985,0.097511,-0.002551,-0.006714,1.000000,-0.000039,0.000048,-0.000008,-0.999977,0.000191,0.002273,0.006449,-0.020263,-0.260658,-0.739003,0.999906,-0.012898,0.004549,0.012899,0.999917,-0.000354,-0.004544,0.000412,0.999990
08914,9.724213,-0.274935,-0.662469,0.007009,0.014850,-0.062072,-0.002797,0.007693,-0.001703,0.483718,-0.017721,-0.781280,0.097242,-0.002750,-0.006628,1.000000,-0.000014,0.000038,-0.000009,-0.999976,0.000198,0.002312,0.006494,-0.020918,-0.265071,-0.744155,0.999905,-0.012987,0.004626,0.012989,0.999916,-0.000365,-0.004621,0.000425,0.999989
08915,9.751240,-0.254552,-0.669192,0.008998,-0.006511,-0.035205,0.000805,0.012160,-0.002741,0.478946,-0.033164,-0.776005,0.097512,-0.002547,-0.006698,1.000000,0.000004,0.000061,-0.000014,-0.999976,0.000200,0.002374,0.006514,-0.021144,-0.272210,-0.746422,0.999904,-0.013027,0.004751,0.013029,0.999915,-0.000369,-0.004746,0.000431,0.999989
08916,9.738869,-0.253055,-0.708467,-0.029120,-0.021812,-0.044872,0.000676,0.010706,-0.002222,0.481303,-0.042328,-0.772273,0.097388,-0.002532,-0.007090,1.000000,0.000003,0.000054,-0.000011,-0.999976,0.000204,0.002428,0.006550,-0.021545,-0.278428,-0.750538,0.999902,-0.013099,0.004859,0.013101,0.999914,-0.000376,-0.004854,0.000440,0.999988
08917,9.762071,-0.251291,-0.699745,-0.019708,-0.020329,-0.022385,0.008941,0.010440,-0.002336,0.479566,-0.033575,-0.780217,0.097620,-0.002514,-0.007003,1.000000,0.000045,0.000052,-0.000012,-0.999976,0.000204,0.002482,0.006529,-0.021573,-0.284564,-0.748147,0.999902,-0.013057,0.004967,0.013059,0.999915,-0.000377,-0.004961,0.000441,0.999988
08918,9.774606,-0.252466,-0.658116,0.018411,-0.004585,-0.012717,0.008738,0.014412,-0.000551,0.479622,-0.034573,-0.781201,0.097746,-0.002525,-0.006588,1.000000,0.000044,0.000072,-0.000003,-0.999976,0.000187,0.002550,0.006511,-0.019565,-0.292345,-0.746083,0.999902,-0.013021,0.005102,0.013023,0.999915,-0.000341,-0.005097,0.000408,0.999987
08919,9.758425,-0.269852,-0.681698,-0.012287,0.002933,-0.026767,0.006901,0.014892,0.000601,0.480897,-0.026642,-0.775179,0.097584,-0.002698,-0.006824,1.000000,0.000035,0.000074,0.000003,-0.999975,0.000167,0.002619,0.006502,-0.017182,-0.300233,-0.745054,0.999902,-0.013003,0.005240,0.013005,0.999915,-0.000300,-0.005236,0.000368,0.999986
08920,9.751669,-0.254201,-0.663042,0.008969,-0.005374,-0.035204,0.008480,0.011506,0.000488,0.484155,-0.037082,-0.786458,0.097516,-0.002541,-0.006636,1.000000,0.000042,0.000058,0.000002,-0.999975,0.000152,0.002672,0.006494,-0.015486,-0.306299,-0.744141,0.999901,-0.012987,0.005346,0.012989,0.999916,-0.000270,-0.005342,0.000340,0.999986
08921,9.758574,-0.270101,-0.679467,-0.012302,0.003397,-0.026767,0.004877,0.007039,0.001526,0.486223,-0.030603,-0.774376,0.097586,-0.002700,-0.006798,1.000000,0.000024,0.000035,0.000008,-0.999975,0.000143,0.002703,0.006494,-0.014350,-0.309810,-0.744178,0.999901,-0.012988,0.005407,0.012989,0.999916,-0.000250,-0.005403,0.000321,0.999985
08922,9.792425,-0.265784,-0.703825,-0.031550,-0.009438,0.008540,0.008553,0.006080,-0.000777,0.486370,-0.025254,-0.775612,0.097924,-0.002658,-0.007041,1.000000,0.000043,0.000030,-0.000004,-0.999975,0.000143,0.002732,0.006483,-0.014375,-0.313114,-0.742902,0.999901,-0.012966,0.005465,0.012967,0.999916,-0.000251,-0.005461,0.000322,0.999985
08923,9.778763,-0.234225,-0.668683,0.010956,-0.026285,-0.008332,0.001867,0.002960,-0.000779,0.484059,-0.028419,-0.770776,0.097788,-0.002343,-0.006688,1.000000,0.000009,0.000015,-0.000004,-0.999975,0.000153,0.002747,0.006497,-0.015448,-0.314939,-0.744494,0.999900,-0.012993,0.005497,0.012995,0.999916,-0.000270,-0.005493,0.000341,0.999985
08924,9.762522,-0.251580,-0.693319,-0.019687,-0.018741,-0.022382,0.004979,0.005053,0.000634,0.479886,-0.036568,-0.781222,0.097625,-0.002515,-0.006936,1.000000,0.000025,0.000025,0.000003,-0.999975,0.000152,0.002768,0.006512,-0.015305,-0.317264,-0.746191,0.999900,-0.013023,0.005537,0.013025,0.999915,-0.000267,-0.005533,0.000339,0.999985
08925,9.769411,-0.267277,-0.710134,-0.040957,-0.009964,-0.013945,0.005572,0.005441,-0.002709,0.482261,-0.022385,-0.776512,0.097694,-0.002674,-0.007104,1.000000,0.000028,0.000027,-0.000014,-0.999975,0.000164,0.002799,0.006507,-0.016725,-0.320817,-0.745627,0.999900,-0.013013,0.005599,0.013015,0.999915,-0.000292,-0.005595,0.000365,0.999984
08926,9.743336,-0.234208,-0.715341,-0.036565,-0.042355,-0.040480,0.004197,0.004855,-0.004381,0.483127,-0.031772,-0.776090,0.097433,-0.002344,-0.007156,1.000000,0.000021,0.000024,-0.000022,-0.999975,0.000186,0.002829,0.006520,-0.019237,-0.324346,-0.747056,0.999899,-0.013038,0.005661,0.013040,0.999915,-0.000336,-0.005656,0.000410,0.999984
08927,9.759632,-0.216615,-0.689922,-0.005896,-0.049418,-0.026428,0.000260,0.002907,-0.001039,0.483674,-0.032590,-0.776623,0.097596,-0.002167,-0.006901,1.000000,0.000001,0.000015,-0.000005,-0.999975,0.000198,0.002845,0.006542,-0.020527,-0.326198,-0.749554,0.999898,-0.013082,0.005693,0.013084,0.999914,-0.000358,-0.005688,0.000433,0.999984
08928,9.725852,-0.220760,-0.664522,0.013396,-0.036160,-0.061737,-0.002462,0.005174,-0.004010,0.479446,-0.031399,-0.784126,0.097258,-0.002210,-0.006648,1.000000,-0.000012,0.000026,-0.000020,-0.999974,0.000219,0.002876,0.006585,-0.022969,-0.329679,-0.754535,0.999897,-0.013169,0.005754,0.013171,0.999913,-0.000401,-0.005748,0.000477,0.999983
08929,9.728905,-0.254778,-0.665966,-0.000429,-0.004545,-0.057689,-0.001087,0.005760,-0.002338,0.477224,-0.034068,-0.785665,0.097289,-0.002549,-0.006662,1.000000,-0.000005,0.000029,-0.000012,-0.999974,0.000232,0.002907,0.006614,-0.024404,-0.333325,-0.757794,0.999896,-0.013225,0.005818,0.013228,0.999912,-0.000426,-0.005811,0.000503,0.999983
08930,9.728960,-0.254593,-0.665225,-0.000464,-0.004326,-0.057689,-0.004504,0.009626,-0.001075,0.481523,-0.029592,-0.782086,0.097289,-0.002547,-0.006657,1.000000,-0.000023,0.000048,-0.000005,-0.999973,0.000233,0.002956,0.006667,-0.024419,-0.338898,-0.763889,0.999894,-0.013332,0.005915,0.013334,0.999911,-0.000426,-0.005909,0.000505,0.999982
08931,9.761997,-0.303010,-0.676063,-0.026114,0.037092,-0.022723,0.000288,0.006347,-0.000666,0.485406,-0.029061,-0.783618,0.097620,-0.003030,-0.006764,1.000000,0.000001,0.000032,-0.000003,-0.999973,0.000236,0.002987,0.006689,-0.024785,-0.342504,-0.766442,0.999893,-0.013376,0.005978,0.013379,0.999910,-0.000433,-0.005971,0.000512,0.999982
08932,9.732070,-0.288752,-0.665814,-0.014280,0.027528,-0.053645,-0.001318,0.006293,-0.000927,0.485560,-0.024890,-0.780691,0.097320,-0.002888,-0.006661,1.000000,-0.000007,0.000031,-0.000005,-0.999973,0.000242,0.003018,0.006732,-0.025396,-0.346053,-0.771319,0.999891,-0.013461,0.006040,0.013464,0.999909,-0.000443,-0.006033,0.000525,0.999982
08933,9.762087,-0.302847,-0.674833,-0.026118,0.037565,-0.022725,0.000289,0.006347,-0.000666,0.484399,-0.033138,-0.783538,0.097621,-0.003029,-0.006751,1.000000,0.000001,0.000032,-0.000003,-0.999973,0.000245,0.003050,0.006754,-0.025761,-0.349658,-0.773873,0.999890,-0.013506,0.006103,0.013509,0.999909,-0.000450,-0.006096,0.000532,0.999981
08934,9.774530,-0.304141,-0.633763,0.012029,0.053328,-0.013064,0.004877,0.007040,0.001527,0.480879,-0.027006,-0.780566,0.097745,-0.003041,-0.006341,1.000000,0.000024,0.000035,0.000008,-0.999972,0.000236,0.003079,0.006767,-0.024660,-0.353016,-0.775421,0.999889,-0.013533,0.006161,0.013536,0.999908,-0.000430,-0.006155,0.000514,0.999981
08935,9.766025,-0.284529,-0.688830,-0.033560,0.015208,-0.018335,0.006484,0.007094,0.001788,0.484669,-0.025841,-0.786743,0.097660,-0.002844,-0.006892,1.000000,0.000032,0.000035,0.000009,-0.999972,0.000224,0.003110,0.006760,-0.023307,-0.356500,-0.774551,0.999889,-0.013518,0.006222,0.013521,0.999909,-0.000407,-0.006216,0.000491,0.999981
08936,9.766063,-0.284828,-0.688175,-0.033562,0.015462,-0.018335,0.011174,0.005801,0.003089,0.477368,-0.035652,-0.775145,0.097660,-0.002846,-0.006885,1.000000,0.000056,0.000029,0.000015,-0.999972,0.000208,0.003131,0.006744,-0.021453,-0.358973,-0.772801,0.999889,-0.013487,0.006265,0.013490,0.999909,-0.000374,-0.006260,0.000459,0.999980
08937,9.779331,-0.233396,-0.660609,0.010904,-0.023006,-0.008323,0.006586,0.005107,0.000895,0.491484,-0.031982,-0.781404,0.097793,-0.002333,-0.006609,1.000000,0.000033,0.000026,0.000004,-0.999972,0.000204,0.003154,0.006736,-0.020987,-0.361587,-0.771803,0.999889,-0.013470,0.006311,0.013472,0.999909,-0.000366,-0.006305,0.000451,0.999980
08938,9.763107,-0.251199,-0.685177,-0.019748,-0.015481,-0.022376,0.005397,0.004333,0.007580,0.483852,-0.035087,-0.786923,0.097631,-0.002508,-0.006854,1.000000,0.000027,0.000022,0.000038,-0.999972,0.000170,0.003159,0.006743,-0.017068,-0.362148,-0.772610,0.999889,-0.013484,0.006321,0.013486,0.999909,-0.000298,-0.006316,0.000383,0.999980
08939,9.796949,-0.247502,-0.709757,-0.039040,-0.028264,0.012937,0.004023,0.003746,0.005908,0.483292,-0.037168,-0.777818,0.097969,-0.002472,-0.007099,1.000000,0.000020,0.000019,0.000030,-0.999972,0.000146,0.003167,0.006748,-0.014332,-0.362980,-0.773265,0.999889,-0.013495,0.006335,0.013497,0.999909,-0.000250,-0.006331,0.000336,0.999980
08940,9.760118,-0.218062,-0.682554,-0.005958,-0.046438,-0.026414,0.005963,0.001280,0.003866,0.483187,-0.030050,-0.780013,0.097601,-0.002179,-0.006826,1.000000,0.000030,0.000006,0.000019,-0.999972,0.000134,0.003165,0.006748,-0.012943,-0.362805,-0.773245,0.999889,-0.013495,0.006332,0.013497,0.999909,-0.000226,-0.006328,0.000311,0.999980
08941,9.786237,-0.251282,-0.676562,-0.010336,-0.013562,0.000111,0.005862,0.003267,0.004758,0.486901,-0.036590,-0.775899,0.097862,-0.002510,-0.006767,1.000000,0.000029,0.000016,0.000024,-0.999972,0.000116,0.003172,0.006744,-0.010843,-0.363624,-0.772793,0.999889,-0.013487,0.006346,0.013489,0.999909,-0.000189,-0.006343,0.000275,0.999980
08942,9.770000,-0.269139,-0.701269,-0.040981,-0.006025,-0.013942,0.005862,0.003267,0.004758,0.480435,-0.023875,-0.777102,0.097700,-0.002689,-0.007014,1.000000,0.000029,0.000016,0.000024,-0.999972,0.000097,0.003178,0.006749,-0.008656,-0.364188,-0.773315,0.999889,-0.013496,0.006356,0.013497,0.999909,-0.000151,-0.006354,0.000237,0.999980
08943,9.786268,-0.252260,-0.675746,-0.010316,-0.013111,0.000112,0.007730,0.006227,0.003979,0.484291,-0.022526,-0.771529,0.097863,-0.002520,-0.006761,1.000000,0.000039,0.000031,0.000020,-0.999972,0.000076,0.003200,0.006735,-0.006269,-0.366748,-0.771812,0.999889,-0.013470,0.006401,0.013471,0.999909,-0.000109,-0.006399,0.000196,0.999980
08944,9.759304,-0.272880,-0.667769,-0.012256,0.008737,-0.026770,0.007440,-0.000119,0.004647,0.482365,-0.031588,-0.774806,0.097593,-0.002726,-0.006678,1.000000,0.000037,-0.000001,0.000023,-0.999972,0.000066,0.003190,0.006742,-0.005093,-0.365573,-0.772556,0.999889,-0.013483,0.006380,0.013484,0.999909,-0.000089,-0.006379,0.000175,0.999980
08945,9.766186,-0.289269,-0.684564,-0.033514,0.017542,-0.018339,0.012349,0.010361,0.006544,0.485036,-0.030055,-0.773302,0.097662,-0.002889,-0.006851,1.000000,0.000062,0.000052,0.000033,-0.999972,0.000024,0.003227,0.006707,-0.000281,-0.369793,-0.768592,0.999889,-0.013414,0.006454,0.013414,0.999910,-0.000005,-0.006453,0.000091,0.999979
08946,9.779466,-0.238048,-0.656943,0.010980,-0.020950,-0.008319,0.006326,0.002200,0.001935,0.478911,-0.026954,-0.781880,0.097795,-0.002379,-0.006571,1.000000,0.000032,0.000011,0.000010,-0.999972,0.000021,0.003232,0.006710,0.000127,-0.370360,-0.768976,0.999889,-0.013420,0.006464,0.013421,0.999910,0.000002,-0.006463,0.000085,0.999979
08947,9.748652,-0.276933,-0.633369,0.016474,0.023682,-0.039600,0.005011,0.008494,0.001005,0.484532,-0.034860,-0.777181,0.097486,-0.002769,-0.006338,1.000000,0.000025,0.000042,0.000005,-0.999972,0.000011,0.003270,0.006710,0.001298,-0.374755,-0.768940,0.999889,-0.013420,0.006541,0.013420,0.999910,0.000023,-0.006540,0.000065,0.999979
08948,9.771800,-0.275497,-0.624957,0.025909,0.025160,-0.017115,0.001535,0.005480,0.001523,0.481137,-0.035485,-0.783280,0.097718,-0.002754,-0.006252,1.000000,0.000008,0.000027,0.000008,-0.999972,0.000005,0.003293,0.006737,0.001977,-0.377331,-0.772046,0.999888,-0.013474,0.006586,0.013474,0.999909,0.000034,-0.006585,0.000054,0.999978
08949,9.748718,-0.277209,-0.632232,0.016472,0.024142,-0.039602,0.003244,0.003547,0.000893,0.486559,-0.022038,-0.783709,0.097487,-0.002772,-0.006324,1.000000,0.000016,0.000018,0.000004,-0.999972,0.000005,0.003308,0.006745,0.001974,-0.379114,-0.772933,0.999887,-0.013490,0.006617,0.013490,0.999909,0.000034,-0.006617,0.000055,0.999978
08950,9.755605,-0.292944,-0.649250,-0.004766,0.032962,-0.031171,0.002101,0.002426,-0.002190,0.482413,-0.032089,-0.783381,0.097556,-0.002930,-0.006494,1.000000,0.000011,0.000012,-0.000011,-0.999972,0.000023,0.003324,0.006771,-0.000010,-0.380856,-0.775895,0.999886,-0.013541,0.006647,0.013542,0.999908,-0.000000,-0.006647,0.000090,0.999978
08951,9.755632,-0.292741,-0.648937,-0.004775,0.033194,-0.031172,0.010499,0.003613,-0.002816,0.480491,-0.028363,-0.775637,0.097556,-0.002928,-0.006491,1.000000,0.000052,0.000018,-0.000014,-0.999972,0.000037,0.003346,0.006741,-0.001669,-0.383457,-0.772483,0.999887,-0.013482,0.006693,0.013482,0.999909,-0.000029,-0.006692,0.000119,0.999978
08952,9.725694,-0.278411,-0.638858,0.007050,0.023596,-0.062089,0.013612,0.005707,-0.001402,0.479995,-0.028453,-0.779026,0.097257,-0.002784,-0.006392,1.000000,0.000068,0.000029,-0.000007,-0.999972,0.000040,0.003375,0.006708,-0.002016,-0.386775,-0.768645,0.999887,-0.013415,0.006750,0.013415,0.999910,-0.000035,-0.006749,0.000126,0.999977
08953,9.755705,-0.292353,-0.648014,-0.004776,0.033660,-0.031174,0.017625,0.002226,-0.006004,0.490284,-0.031207,-0.779350,0.097557,-0.002926,-0.006481,1.000000,0.000088,0.000011,-0.000030,-0.999972,0.000069,0.003397,0.006641,-0.005367,-0.389310,-0.761005,0.999889,-0.013281,0.006795,0.013282,0.999912,-0.000094,-0.006793,0.000184,0.999977
08954,9.725759,-0.277887,-0.638093,0.007070,0.024062,-0.062090,0.023589,0.003509,-0.002137,0.480890,-0.031040,-0.777383,0.097257,-0.002779,-0.006383,1.000000,0.000118,0.000018,-0.000011,-0.999973,0.000076,0.003416,0.006559,-0.006171,-0.391481,-0.751611,0.999891,-0.013117,0.006833,0.013118,0.999914,-0.000108,-0.006831,0.000197,0.999977
08955,9.729643,-0.259304,-0.653313,-0.000417,0.001472,-0.057688,0.025037,-0.001331,-0.001725,0.486947,-0.031832,-0.784719,0.097296,-0.002593,-0.006533,1.000000,0.000125,-0.000007,-0.000009,-0.999973,0.000089,0.003414,0.006457,-0.007692,-0.391217,-0.739858,0.999893,-0.012912,0.006828,0.012914,0.999917,-0.000134,-0.006826,0.000222,0.999977
08956,9.756615,-0.239199,-0.661043,0.001548,-0.019871,-0.030800,0.028253,-0.001222,-0.001202,0.480149,-0.027370,-0.794957,0.097566,-0.002392,-0.006610,1.000000,0.000141,-0.000006,-0.000006,-0.999974,0.000098,0.003409,0.006349,-0.008760,-0.390743,-0.727533,0.999896,-0.012697,0.006820,0.012699,0.999919,-0.000153,-0.006817,0.000239,0.999977
08957,9.779715,-0.237690,-0.653358,0.010964,-0.018390,-0.008314,0.023200,-0.000849,-0.000575,0.486968,-0.032196,-0.789619,0.097797,-0.002376,-0.006533,1.000000,0.000116,-0.000004,-0.000003,-0.999975,0.000105,0.003407,0.006256,-0.009644,-0.390493,-0.716886,0.999899,-0.012511,0.006815,0.012513,0.999922,-0.000168,-0.006813,0.000254,0.999977
08958,9.760476,-0.220788,-0.676531,-0.005971,-0.042218,-0.026395,0.018378,-0.001010,-0.001358,0.478790,-0.034885,-0.773298,0.097605,-0.002208,-0.006765,1.000000,0.000092,-0.000005,-0.000007,-0.999975,0.000119,0.003406,0.006200,-0.011223,-0.390401,-0.710474,0.999900,-0.012399,0.006814,0.012401,0.999923,-0.000196,-0.006811,0.000280,0.999977
08959,9.753581,-0.205170,-0.659541,0.015256,-0.050578,-0.034823,0.014176,-0.005860,0.003025,0.480547,-0.030766,-0.773682,0.097536,-0.002050,-0.006593,1.000000,0.000071,-0.000029,0.000015,-0.999975,0.000122,0.003374,0.006153,-0.011621,-0.386722,-0.705050,0.999902,-0.012305,0.006750,0.012306,0.999924,-0.000203,-0.006747,0.000286,0.999977
08960,9.776658,-0.203883,-0.652140,0.024699,-0.049109,-0.012336,0.007906,-0.001183,0.001827,0.477579,-0.030757,-0.777856,0.097767,-0.002038,-0.006521,1.000000,0.000040,-0.000006,0.000009,-0.999975,0.000124,0.003364,0.006145,-0.011868,-0.385621,-0.704117,0.999902,-0.012289,0.006730,0.012290,0.999924,-0.000207,-0.006727,0.000290,0.999977
08961,9.753542,-0.205896,-0.659887,0.015257,-0.050127,-0.034820,0.005602,0.000368,0.005798,0.486603,-0.027344,-0.789835,0.097535,-0.002056,-0.006599,1.000000,0.000028,0.000002,0.000029,-0.999975,0.000106,0.003356,0.006142,-0.009837,-0.384675,-0.703809,0.999902,-0.012283,0.006714,0.012285,0.999925,-0.000172,-0.006711,0.000254,0.999977
08962,9.779629,-0.239188,-0.654091,0.010923,-0.017223,-0.008312,0.004096,-0.001674,0.004648,0.476305,-0.023408,-0.777020,0.097796,-0.002389,-0.006540,1.000000,0.000020,-0.000008,0.000023,-0.999975,0.000099,0.003340,0.006159,-0.008973,-0.382850,-0.705801,0.999902,-0.012318,0.006682,0.012319,0.999924,-0.000157,-0.006680,0.000239,0.999978
08963,9.783474,-0.221195,-0.669715,0.003424,-0.039807,-0.003904,0.000518,-0.002699,0.006058,0.485405,-0.032868,-0.779454,0.097835,-0.002209,-0.006696,1.000000,0.000003,-0.000013,0.000030,-0.999975,0.000087,0.003318,0.006182,-0.007660,-0.380217,-0.708358,0.999902,-0.012363,0.006636,0.012364,0.999924,-0.000134,-0.006634,0.000216,0.999978
08964,9.753460,-0.207637,-0.660549,0.015237,-0.049408,-0.034817,0.001863,-0.005551,0.007362,0.484751,-0.033592,-0.781362,0.097535,-0.002073,-0.006603,1.000000,0.000009,-0.000028,0.000037,-0.999975,0.000075,0.003278,0.006211,-0.006284,-0.375689,-0.711707,0.999901,-0.012421,0.006557,0.012422,0.999923,-0.000110,-0.006555,0.000191,0.999978
08965,9.779511,-0.241198,-0.655125,0.010904,-0.016513,-0.008310,-0.001685,-0.003136,0.009139,0.484223,-0.034136,-0.787443,0.097795,-0.002408,-0.006550,1.000000,-0.000008,-0.000016,0.000046,-0.999975,0.000051,0.003248,0.006245,-0.003517,-0.372173,-0.715645,0.999901,-0.012490,0.006496,0.012490,0.999922,-0.000061,-0.006494,0.000143,0.999979
08966,9.760230,-0.225127,-0.678649,-0.006011,-0.040357,-0.026387,-0.005031,-0.004696,0.009139,0.480538,-0.036843,-0.781029,0.097603,-0.002247,-0.006784,1.000000,-0.000025,-0.000023,0.000046,-0.999975,0.000030,0.003209,0.006305,-0.001144,-0.367719,-0.722470,0.999900,-0.012609,0.006418,0.012609,0.999920,-0.000020,-0.006417,0.000101,0.999979
08967,9.791043,-0.187343,-0.702143,-0.011581,-0.084503,0.004917,-0.008347,-0.002816,0.009506,0.480578,-0.033035,-0.784705,0.097911,-0.001869,-0.007020,1.000000,-0.000042,-0.000014,0.000048,-0.999975,0.000006,0.003179,0.006372,0.001609,-0.364295,-0.730233,0.999899,-0.012744,0.006358,0.012744,0.999919,0.000028,-0.006358,0.000053,0.999980
08968,9.772533,-0.227940,-0.638687,0.032123,-0.024453,-0.016736,-0.006345,0.001596,0.008203,0.478167,-0.024321,-0.774719,0.097725,-0.002276,-0.006388,1.000000,-0.000032,0.000008,0.000041,-0.999974,-0.000021,0.003172,0.006436,0.004788,-0.363490,-0.737571,0.999897,-0.012872,0.006344,0.012872,0.999917,0.000084,-0.006345,-0.000002,0.999980
08969,9.776383,-0.210283,-0.654229,0.024615,-0.047035,-0.012326,-0.011924,-0.003840,0.010916,0.480717,-0.029635,-0.782512,0.097764,-0.002098,-0.006540,1.000000,-0.000060,-0.000019,0.000055,-0.999974,-0.000049,0.003135,0.006522,0.007925,-0.359222,-0.747419,0.999895,-0.013044,0.006270,0.013044,0.999915,0.000138,-0.006271,-0.000057,0.999980
08970,9.776357,-0.211100,-0.654363,0.024607,-0.046784,-0.012325,-0.017829,0.001758,0.007787,0.480582,-0.035211,-0.782257,0.097764,-0.002108,-0.006544,1.000000,-0.000089,0.000009,0.000039,-0.999973,-0.000068,0.003130,0.006651,0.010210,-0.358561,-0.762229,0.999892,-0.013303,0.006258,0.013302,0.999912,0.000178,-0.006260,-0.000095,0.999980
08971,9.774701,-0.207787,-0.727530,-0.042301,-0.076206,-0.009134,-0.022681,-0.001842,0.006635,0.488057,-0.028209,-0.785786,0.097747,-0.002075,-0.007274,1.000000,-0.000113,-0.000009,0.000033,-0.999972,-0.000075,0.003110,0.006790,0.011044,-0.356259,-0.778075,0.999888,-0.013579,0.006218,0.013578,0.999908,0.000193,-0.006220,-0.000108,0.999981
08972,9.756191,-0.248101,-0.664010,0.001432,-0.016150,-0.030793,-0.020911,0.003105,0.006744,0.486725,-0.033374,-0.788620,0.097562,-0.002478,-0.006641,1.000000,-0.000105,0.000016,0.000034,-0.999971,-0.000092,0.003112,0.006930,0.013064,-0.356473,-0.794224,0.999885,-0.013861,0.006222,0.013860,0.999904,0.000228,-0.006224,-0.000142,0.999981
08973,9.763040,-0.264447,-0.681134,-0.019813,-0.007306,-0.022367,-0.021041,0.001652,0.007265,0.484626,-0.029601,-0.776209,0.097630,-0.002642,-0.006812,1.000000,-0.000105,0.000008,0.000036,-0.999970,-0.000109,0.003107,0.007061,0.015037,-0.355898,-0.809217,0.999881,-0.014123,0.006212,0.014121,0.999900,0.000262,-0.006215,-0.000175,0.999981
