// General information: 
//  MT Manager version: 2020.5.0 
//  XDA version: 2020.5.0 build 5678 rev 108182 built on 2021-02-04
// Device information: 
//  DeviceId: 00B46A09
//  ProductCode: MTW2-3A7G6
//  Firmware Version: 4.4.0
//  Hardware Version: 2.0.0
// Device settings: 
//  Filter Profile: human(46.1)
//  Option Flags: Orientation Smoother Disabled, Position/Velocity Smoother Disabled, Continuous Zero Rotation Update Disabled, AHS Disabled, ICC Disabled
// Coordinate system: ENU
PacketCounter,Acc_X,Acc_Y,Acc_Z,FreeAcc_E,FreeAcc_N,FreeAcc_U,Gyr_X,Gyr_Y,Gyr_Z,Mag_X,Mag_Y,Mag_Z,VelInc_X,VelInc_Y,VelInc_Z,OriInc_q0,OriInc_q1,OriInc_q2,OriInc_q3,Quat_q0,Quat_q1,Quat_q2,Quat_q3,Roll,Pitch,Yaw,Mat[1][1],Mat[2][1],Mat[3][1],Mat[1][2],Mat[2][2],Mat[3][2],Mat[1][3],Mat[2][3],Mat[3][3]
08622,9.589280,0.803590,-1.965736,0.036575,0.021916,0.008837,0.002601,0.001473,-0.005894,-0.891078,-0.193401,-1.218972,0.095893,0.008033,-0.019658,1.000000,0.000013,0.000007,-0.000029,0.999990,0.003620,-0.002710,-0.000522,0.414985,-0.310360,-0.060886,0.999985,-0.001063,0.005417,0.001023,0.999973,0.007243,-0.005424,-0.007237,0.999959
08623,9.573946,0.817389,-1.993655,0.003186,0.021464,0.000709,-0.002689,-0.000554,-0.005098,-0.891894,-0.200240,-1.213271,0.095740,0.008171,-0.019936,1.000000,-0.000013,-0.000003,-0.000025,0.999990,0.003606,-0.002689,-0.000544,0.413343,-0.307877,-0.063472,0.999985,-0.001108,0.005373,0.001069,0.999973,0.007214,-0.005381,-0.007208,0.999960
08624,9.607043,0.774867,-1.989093,0.031906,0.058774,0.028436,0.000663,0.011726,-0.010019,-0.891970,-0.203344,-1.207240,0.096070,0.007744,-0.019897,1.000000,0.000003,0.000059,-0.000050,0.999990,0.003542,-0.002711,-0.000490,0.406036,-0.310447,-0.057236,0.999985,-0.000999,0.005418,0.000961,0.999974,0.007086,-0.005425,-0.007081,0.999960
08625,9.583249,0.803214,-1.940713,0.057581,0.013964,-0.002149,-0.003661,0.007775,-0.007688,-0.892045,-0.207453,-1.213487,0.095832,0.008028,-0.019411,1.000000,-0.000018,0.000039,-0.000038,0.999990,0.003498,-0.002722,-0.000511,0.401006,-0.311678,-0.059637,0.999985,-0.001041,0.005440,0.001003,0.999975,0.006999,-0.005447,-0.006993,0.999961
08626,9.601105,0.774068,-1.963825,0.052668,0.050867,0.017452,0.003312,0.009538,-0.009889,-0.879388,-0.209374,-1.210897,0.096010,0.007736,-0.019643,1.000000,0.000017,0.000048,-0.000049,0.999990,0.003450,-0.002739,-0.000492,0.395485,-0.313632,-0.057448,0.999985,-0.001003,0.005474,0.000965,0.999976,0.006902,-0.005481,-0.006897,0.999961
08627,9.599480,0.829210,-1.957597,0.035004,-0.000896,0.019330,0.001309,0.008309,-0.008644,-0.888222,-0.205047,-1.212616,0.095994,0.008288,-0.019580,1.000000,0.000007,0.000042,-0.000043,0.999990,0.003406,-0.002750,-0.000487,0.390471,-0.314932,-0.056933,0.999984,-0.000994,0.005497,0.000956,0.999976,0.006815,-0.005503,-0.006809,0.999962
08628,9.601266,0.775789,-1.962358,0.053108,0.050418,0.017452,0.002354,0.005055,-0.010367,-0.887793,-0.203290,-1.211963,0.096013,0.007753,-0.019626,1.000000,0.000012,0.000025,-0.000052,0.999990,0.003365,-0.002738,-0.000493,0.385759,-0.313517,-0.057562,0.999985,-0.001005,0.005472,0.000968,0.999977,0.006733,-0.005479,-0.006727,0.999962
08629,9.609181,0.724860,-1.990873,0.050632,0.109263,0.026564,0.009774,0.003319,-0.009642,-0.884157,-0.203510,-1.211299,0.096092,0.007245,-0.019910,1.000000,0.000049,0.000017,-0.000048,0.999991,0.003336,-0.002724,-0.000449,0.382472,-0.312012,-0.052456,0.999985,-0.000916,0.005446,0.000879,0.999977,0.006675,-0.005452,-0.006670,0.999963
08630,9.601240,0.777332,-1.961876,0.053506,0.050022,0.017452,0.012423,0.001130,-0.009511,-0.886156,-0.202591,-1.211088,0.096013,0.007770,-0.019619,1.000000,0.000062,0.000006,-0.000048,0.999991,0.003316,-0.002698,-0.000386,0.380083,-0.309027,-0.045230,0.999985,-0.000789,0.005394,0.000754,0.999978,0.006634,-0.005399,-0.006629,0.999963
08631,9.574298,0.823734,-1.989349,0.004658,0.019929,0.000712,0.014226,0.002278,-0.009206,-0.880832,-0.202213,-1.210313,0.095743,0.008234,-0.019894,1.000000,0.000071,0.000011,-0.000046,0.999991,0.003296,-0.002681,-0.000321,0.377821,-0.307099,-0.037743,0.999985,-0.000659,0.005360,0.000623,0.999978,0.006594,-0.005364,-0.006591,0.999964
08632,9.605497,0.835689,-1.980157,0.015618,0.005556,0.030315,0.006776,-0.005137,-0.013842,-0.889802,-0.211253,-1.222273,0.096056,0.008351,-0.019799,1.000000,0.000034,-0.000026,-0.000069,0.999991,0.003262,-0.002616,-0.000281,0.373941,-0.299633,-0.033235,0.999986,-0.000580,0.005230,0.000546,0.999979,0.006526,-0.005233,-0.006523,0.999965
08633,9.587532,0.866806,-1.956627,0.020800,-0.031771,0.010707,0.000759,-0.002418,-0.011164,-0.892027,-0.205457,-1.217500,0.095876,0.008663,-0.019565,1.000000,0.000004,-0.000012,-0.000056,0.999991,0.003229,-0.002573,-0.000282,0.370089,-0.294742,-0.033271,0.999987,-0.000581,0.005144,0.000547,0.999979,0.006459,-0.005148,-0.006456,0.999966
08634,9.591639,0.797004,-2.014076,0.000308,0.056415,0.020322,-0.001810,-0.001561,-0.014553,-0.892286,-0.199439,-1.204662,0.095917,0.007963,-0.020140,1.000000,-0.000009,-0.000008,-0.000073,0.999992,0.003179,-0.002523,-0.000314,0.364339,-0.289052,-0.036867,0.999987,-0.000643,0.005045,0.000611,0.999980,0.006359,-0.005049,-0.006356,0.999967
08635,9.604319,0.801794,-1.934337,0.072602,0.019572,0.016953,0.002762,-0.001189,-0.012409,-0.882877,-0.214695,-1.215102,0.096044,0.008012,-0.019343,1.000000,0.000014,-0.000006,-0.000062,0.999992,0.003139,-0.002484,-0.000303,0.359820,-0.284511,-0.035577,0.999987,-0.000621,0.004966,0.000590,0.999980,0.006280,-0.004969,-0.006277,0.999968
08636,9.551423,0.802582,-1.948282,0.048983,0.025764,-0.031759,0.001596,0.000653,-0.012394,-0.890595,-0.209379,-1.212819,0.095515,0.008020,-0.019483,1.000000,0.000008,0.000003,-0.000062,0.999992,0.003098,-0.002453,-0.000312,0.355146,-0.280935,-0.036651,0.999988,-0.000640,0.004903,0.000609,0.999981,0.006198,-0.004907,-0.006195,0.999969
08637,9.601165,0.822328,-2.009255,-0.001572,0.033833,0.030815,0.004882,0.001454,-0.011944,-0.889131,-0.203325,-1.212907,0.096012,0.008218,-0.020093,1.000000,0.000024,0.000007,-0.000060,0.999992,0.003058,-0.002426,-0.000290,0.350512,-0.277888,-0.034098,0.999988,-0.000595,0.004850,0.000565,0.999981,0.006117,-0.004854,-0.006115,0.999970
08638,9.598618,0.840023,-1.957214,0.037151,-0.003313,0.019322,0.006485,0.002521,-0.010091,-0.887924,-0.205916,-1.211933,0.095986,0.008396,-0.019573,1.000000,0.000032,0.000013,-0.000050,0.999992,0.003028,-0.002408,-0.000274,0.347103,-0.275888,-0.032202,0.999988,-0.000562,0.004815,0.000533,0.999982,0.006058,-0.004818,-0.006055,0.999970
08639,9.604739,0.843530,-1.980507,0.016843,0.003976,0.030314,0.006884,0.002684,-0.013189,-0.892619,-0.195994,-1.214357,0.096048,0.008430,-0.019806,1.000000,0.000034,0.000013,-0.000066,0.999993,0.002982,-0.002385,-0.000240,0.341803,-0.273189,-0.028322,0.999989,-0.000494,0.004768,0.000466,0.999982,0.005965,-0.004771,-0.005963,0.999971
08640,9.577764,0.890295,-2.007725,-0.032031,-0.026078,0.013575,0.002351,0.005054,-0.010367,-0.892419,-0.203122,-1.209642,0.095778,0.008898,-0.020080,1.000000,0.000012,0.000025,-0.000052,0.999993,0.002938,-0.002378,-0.000214,0.336700,-0.272457,-0.025273,0.999989,-0.000441,0.004755,0.000413,0.999983,0.005876,-0.004758,-0.005874,0.999971
08641,9.595584,0.861132,-2.031257,-0.036869,0.010852,0.033190,-0.003337,0.002859,-0.006473,-0.882177,-0.200917,-1.214011,0.095956,0.008608,-0.020314,1.000000,-0.000017,0.000014,-0.000032,0.999993,0.002910,-0.002369,-0.000236,0.333477,-0.271422,-0.027886,0.999989,-0.000487,0.004737,0.000459,0.999983,0.005820,-0.004740,-0.005818,0.999972
08642,9.577076,0.854485,-1.960397,0.024732,-0.011812,0.000209,-0.008874,0.004407,-0.010153,-0.892693,-0.194494,-1.210581,0.095771,0.008539,-0.019606,1.000000,-0.000044,0.000022,-0.000051,0.999993,0.002856,-0.002359,-0.000274,0.327343,-0.270187,-0.032157,0.999989,-0.000561,0.004716,0.000534,0.999984,0.005713,-0.004719,-0.005711,0.999973
08643,9.594899,0.825543,-1.983866,0.019897,0.025115,0.019825,-0.006106,0.003633,-0.008313,-0.883235,-0.205352,-1.209508,0.095949,0.008251,-0.019841,1.000000,-0.000031,0.000018,-0.000042,0.999993,0.002815,-0.002349,-0.000308,0.322656,-0.269107,-0.036059,0.999989,-0.000629,0.004697,0.000603,0.999984,0.005631,-0.004700,-0.005628,0.999973
08644,9.600370,0.791333,-1.960534,0.055989,0.047087,0.017453,-0.003654,0.001365,-0.006632,-0.879310,-0.197592,-1.208409,0.096004,0.007910,-0.019606,1.000000,-0.000018,0.000007,-0.000033,0.999993,0.002788,-0.002334,-0.000313,0.319546,-0.267349,-0.036637,0.999989,-0.000639,0.004666,0.000613,0.999984,0.005577,-0.004670,-0.005574,0.999974
08645,9.575195,0.783242,-1.993441,0.024981,0.068574,-0.001148,0.006536,-0.001139,-0.004066,-0.886768,-0.205336,-1.211698,0.095752,0.007831,-0.019934,1.000000,0.000033,-0.000006,-0.000020,0.999993,0.002789,-0.002312,-0.000292,0.319727,-0.264840,-0.034227,0.999989,-0.000597,0.004622,0.000572,0.999984,0.005580,-0.004626,-0.005577,0.999974
08646,9.598454,0.846461,-1.955243,0.038525,-0.004867,0.019316,0.005569,0.000784,-0.005601,-0.884837,-0.198037,-1.215903,0.095985,0.008462,-0.019553,1.000000,0.000028,0.000004,-0.000028,0.999993,0.002779,-0.002292,-0.000267,0.318564,-0.262604,-0.031283,0.999989,-0.000546,0.004583,0.000521,0.999984,0.005560,-0.004586,-0.005557,0.999974
08647,9.588569,0.825225,-1.960231,0.041075,0.016852,0.008829,0.002164,-0.001432,-0.007759,-0.885059,-0.203647,-1.211341,0.095886,0.008249,-0.019602,1.000000,0.000011,-0.000007,-0.000039,0.999994,0.002760,-0.002261,-0.000263,0.316387,-0.259045,-0.030892,0.999990,-0.000539,0.004521,0.000514,0.999985,0.005522,-0.004524,-0.005520,0.999975
08648,9.599070,0.885006,-2.001666,-0.017491,-0.019908,0.032685,-0.001816,0.005257,-0.001362,-0.885654,-0.201380,-1.210202,0.095990,0.008849,-0.020019,1.000000,-0.000009,0.000026,-0.000007,0.999994,0.002751,-0.002270,-0.000273,0.315305,-0.260085,-0.031986,0.999990,-0.000558,0.004539,0.000533,0.999985,0.005503,-0.004542,-0.005501,0.999975
08649,9.606443,0.796077,-1.983606,0.036481,0.053593,0.028450,-0.005338,0.001628,-0.005229,-0.882877,-0.203578,-1.211595,0.096064,0.007958,-0.019837,1.000000,-0.000027,0.000008,-0.000026,0.999994,0.002729,-0.002258,-0.000307,0.312749,-0.258702,-0.035927,0.999990,-0.000627,0.004515,0.000602,0.999985,0.005458,-0.004519,-0.005456,0.999975
08650,9.567102,0.837259,-1.964080,0.028595,0.008538,-0.010281,-0.004371,-0.000294,-0.003694,-0.884579,-0.205062,-1.209949,0.095671,0.008370,-0.019641,1.000000,-0.000022,-0.000001,-0.000018,0.999994,0.002719,-0.002239,-0.000339,0.311643,-0.256429,-0.039498,0.999990,-0.000689,0.004476,0.000665,0.999985,0.005439,-0.004479,-0.005436,0.999975
08651,9.608257,0.742656,-1.988776,0.054723,0.104731,0.026591,0.005687,0.002197,-0.003892,-0.886487,-0.200101,-1.209258,0.096082,0.007425,-0.019889,1.000000,0.000028,0.000011,-0.000019,0.999994,0.002713,-0.002232,-0.000320,0.311024,-0.255694,-0.037412,0.999990,-0.000653,0.004463,0.000629,0.999985,0.005428,-0.004466,-0.005425,0.999975
08652,9.596593,0.775323,-1.988267,0.039418,0.074875,0.017967,0.011624,0.000815,-0.003311,-0.894907,-0.200515,-1.203054,0.095966,0.007753,-0.019883,1.000000,0.000058,0.000004,-0.000017,0.999994,0.002721,-0.002221,-0.000273,0.311911,-0.254366,-0.031926,0.999990,-0.000557,0.004440,0.000533,0.999985,0.005444,-0.004442,-0.005441,0.999975
08653,9.598366,0.849018,-1.954565,0.039800,-0.006285,0.019310,0.014792,0.000205,-0.004569,-0.889752,-0.198227,-1.210509,0.095984,0.008489,-0.019545,1.000000,0.000074,0.000001,-0.000023,0.999994,0.002727,-0.002204,-0.000210,0.312567,-0.252460,-0.024780,0.999990,-0.000432,0.004406,0.000408,0.999985,0.005455,-0.004409,-0.005453,0.999975
08654,9.604500,0.851669,-1.978185,0.019361,0.001015,0.030310,0.011306,-0.000680,-0.003470,-0.888246,-0.204177,-1.212109,0.096045,0.008516,-0.019781,1.000000,0.000057,-0.000003,-0.000017,0.999994,0.002735,-0.002192,-0.000141,0.313502,-0.251141,-0.016896,0.999990,-0.000295,0.004383,0.000271,0.999985,0.005472,-0.004385,-0.005470,0.999975
08655,9.589117,0.865047,-2.006428,-0.014034,0.000594,0.022201,0.007703,-0.002978,-0.004079,-0.887560,-0.202932,-1.215274,0.095892,0.008649,-0.020063,1.000000,0.000039,-0.000015,-0.000020,0.999994,0.002742,-0.002162,-0.000116,0.314255,-0.247675,-0.013928,0.999991,-0.000243,0.004323,0.000219,0.999985,0.005485,-0.004324,-0.005484,0.999976
08656,9.557066,0.816513,-1.969620,0.031856,0.029224,-0.020765,0.005819,-0.002795,-0.001126,-0.886080,-0.206580,-1.218121,0.095571,0.008165,-0.019695,1.000000,0.000029,-0.000014,-0.000006,0.999994,0.002761,-0.002138,-0.000106,0.316409,-0.244925,-0.012799,0.999991,-0.000223,0.004275,0.000200,0.999985,0.005522,-0.004276,-0.005521,0.999976
08657,9.619638,0.838866,-1.950889,0.053432,0.000608,0.038416,0.007171,0.001852,-0.003747,-0.890393,-0.199251,-1.207604,0.096196,0.008388,-0.019509,1.000000,0.000036,0.000009,-0.000019,0.999994,0.002759,-0.002130,-0.000081,0.316134,-0.244050,-0.009920,0.999991,-0.000173,0.004259,0.000150,0.999985,0.005517,-0.004260,-0.005517,0.999976
08658,9.563225,0.819204,-1.993093,0.011716,0.036294,-0.009763,0.006772,0.001689,-0.000649,-0.887565,-0.206103,-1.214772,0.095632,0.008192,-0.019931,1.000000,0.000034,0.000008,-0.000003,0.999994,0.002771,-0.002128,-0.000061,0.317566,-0.243855,-0.007632,0.999991,-0.000133,0.004256,0.000110,0.999985,0.005542,-0.004257,-0.005542,0.999976
08659,9.582159,0.825452,-1.936758,0.063520,0.006902,-0.002178,0.003250,-0.001942,-0.004515,-0.878768,-0.202348,-1.213044,0.095822,0.008253,-0.019367,1.000000,0.000016,-0.000010,-0.000023,0.999994,0.002769,-0.002102,-0.000056,0.317292,-0.240810,-0.007044,0.999991,-0.000123,0.004203,0.000100,0.999985,0.005538,-0.004204,-0.005537,0.999976
08660,9.594455,0.830825,-1.983805,0.022840,0.021648,0.019827,0.003885,0.001048,-0.004197,-0.885848,-0.209769,-1.214166,0.095945,0.008307,-0.019838,1.000000,0.000019,0.000005,-0.000021,0.999994,0.002764,-0.002085,-0.000058,0.316784,-0.238899,-0.007364,0.999991,-0.000129,0.004170,0.000105,0.999985,0.005529,-0.004170,-0.005528,0.999976
08661,9.590135,0.774315,-1.965582,0.061348,0.065505,0.006972,0.010339,0.001242,-0.005005,-0.886923,-0.205080,-1.217676,0.095901,0.007742,-0.019656,1.000000,0.000052,0.000006,-0.000025,0.999994,0.002761,-0.002072,-0.000017,0.316414,-0.237416,-0.002599,0.999991,-0.000045,0.004144,0.000022,0.999985,0.005522,-0.004144,-0.005522,0.999976
08662,9.553297,0.798445,-1.998133,0.014914,0.057306,-0.020240,0.011506,-0.000598,-0.005018,-0.889787,-0.210844,-1.218268,0.095533,0.007983,-0.019981,1.000000,0.000058,-0.000003,-0.000025,0.999994,0.002767,-0.002048,0.000003,0.317080,-0.234661,-0.000271,0.999992,-0.000005,0.004096,-0.000018,0.999985,0.005534,-0.004096,-0.005534,0.999976
08663,9.596245,0.777487,-1.989101,0.041276,0.072519,0.017977,0.011055,0.002899,-0.007944,-0.886361,-0.208269,-1.212293,0.095962,0.007772,-0.019892,1.000000,0.000055,0.000014,-0.000040,0.999994,0.002748,-0.002036,0.000052,0.314922,-0.233339,0.005327,0.999992,0.000093,0.004073,-0.000115,0.999985,0.005496,-0.004072,-0.005497,0.999977
08664,9.579065,0.845752,-2.011417,-0.009984,0.020452,0.011725,0.004349,0.006282,-0.011612,-0.889544,-0.205149,-1.219326,0.095791,0.008452,-0.020117,1.000000,0.000022,0.000031,-0.000058,0.999994,0.002705,-0.002031,0.000037,0.309921,-0.232782,0.003635,0.999992,0.000063,0.004063,-0.000085,0.999985,0.005409,-0.004062,-0.005409,0.999977
08665,9.561168,0.876895,-1.987225,-0.004850,-0.016865,-0.007911,0.001796,0.000729,-0.013941,-0.887870,-0.199351,-1.213198,0.095612,0.008762,-0.019873,1.000000,0.000009,0.000004,-0.000070,0.999994,0.002653,-0.001997,0.000046,0.304056,-0.228868,0.004661,0.999992,0.000081,0.003994,-0.000103,0.999986,0.005307,-0.003994,-0.005307,0.999978
08666,9.625578,0.846025,-1.973513,0.034632,0.006029,0.049413,-0.002939,0.003016,-0.009572,-0.895573,-0.198178,-1.211921,0.096256,0.008455,-0.019737,1.000000,-0.000015,0.000015,-0.000048,0.999995,0.002612,-0.001982,0.000029,0.299357,-0.227071,0.002771,0.999992,0.000048,0.003963,-0.000069,0.999986,0.005225,-0.003963,-0.005225,0.999978
08667,9.605961,0.803367,-1.983001,0.039590,0.049672,0.028458,0.002031,0.003557,-0.010525,-0.884555,-0.202385,-1.217722,0.096060,0.008029,-0.019832,1.000000,0.000010,0.000018,-0.000053,0.999995,0.002571,-0.001967,0.000037,0.294593,-0.225447,0.003669,0.999992,0.000064,0.003935,-0.000084,0.999987,0.005142,-0.003934,-0.005142,0.999979
08668,9.633613,0.796039,-2.001716,0.032373,0.064675,0.058574,0.011254,0.002983,-0.009491,-0.881164,-0.204805,-1.215999,0.096336,0.007957,-0.020018,1.000000,0.000056,0.000015,-0.000047,0.999995,0.002545,-0.001954,0.000100,0.291632,-0.223927,0.010878,0.999992,0.000190,0.003908,-0.000210,0.999987,0.005090,-0.003907,-0.005091,0.999979
08669,9.615709,0.826738,-1.977691,0.037505,0.027357,0.038935,0.009453,0.001833,-0.009796,-0.887490,-0.195430,-1.210028,0.096157,0.008264,-0.019777,1.000000,0.000047,0.000009,-0.000049,0.999995,0.002519,-0.001933,0.000142,0.288583,-0.221601,0.015745,0.999992,0.000275,0.003868,-0.000294,0.999987,0.005037,-0.003866,-0.005038,0.999980
08670,9.610151,0.862490,-2.000608,0.001755,0.005036,0.041312,0.003315,0.003131,-0.008830,-0.887733,-0.216317,-1.223252,0.096102,0.008621,-0.020007,1.000000,0.000017,0.000016,-0.000044,0.999995,0.002487,-0.001919,0.000162,0.284940,-0.219912,0.018074,0.999993,0.000315,0.003838,-0.000335,0.999988,0.004973,-0.003837,-0.004974,0.999980
08671,9.619946,0.885252,-1.995278,-0.000476,-0.017084,0.051788,-0.012045,0.005001,-0.008899,-0.887642,-0.205712,-1.208740,0.096199,0.008847,-0.019956,1.000000,-0.000060,0.000025,-0.000044,0.999995,0.002434,-0.001914,0.000101,0.278880,-0.219389,0.010995,0.999993,0.000192,0.003829,-0.000211,0.999988,0.004867,-0.003828,-0.004868,0.999981
08672,9.578892,0.853337,-2.009036,-0.008597,0.018723,0.011729,-0.010561,0.004657,-0.008753,-0.890366,-0.201551,-1.221893,0.095789,0.008528,-0.020093,1.000000,-0.000053,0.000023,-0.000044,0.999995,0.002391,-0.001908,-0.000002,0.273986,-0.218612,-0.000766,0.999993,-0.000013,0.003815,-0.000005,0.999989,0.004782,-0.003816,-0.004782,0.999981
08673,9.584463,0.819389,-1.985335,0.027532,0.040643,0.009353,-0.010245,0.006152,-0.008594,-0.889615,-0.197510,-1.218558,0.095844,0.008189,-0.019857,1.000000,-0.000051,0.000031,-0.000043,0.999995,0.002339,-0.001909,-0.000055,0.268039,-0.218767,-0.006816,0.999993,-0.000119,0.003818,0.000101,0.999989,0.004678,-0.003819,-0.004678,0.999982
08674,9.590088,0.785217,-1.961481,0.063692,0.062583,0.006976,-0.007042,0.008291,-0.004887,-0.890011,-0.204383,-1.206189,0.095900,0.007849,-0.019619,1.000000,-0.000035,0.000041,-0.000024,0.999995,0.002302,-0.001927,-0.000084,0.263756,-0.220746,-0.010093,0.999993,-0.000176,0.003853,0.000158,0.999989,0.004603,-0.003854,-0.004603,0.999982
08675,9.584619,0.820872,-1.983968,0.027895,0.040268,0.009353,0.000147,0.003741,-0.007572,-0.889383,-0.201177,-1.208840,0.095846,0.008205,-0.019841,1.000000,0.000001,0.000019,-0.000038,0.999996,0.002271,-0.001919,-0.000088,0.260209,-0.219918,-0.010587,0.999993,-0.000185,0.003838,0.000167,0.999990,0.004541,-0.003839,-0.004541,0.999982
08676,9.594420,0.843253,-1.978728,0.025556,0.018092,0.019828,0.001232,0.003234,-0.004329,-0.890336,-0.194647,-1.209622,0.095944,0.008431,-0.019789,1.000000,0.000006,0.000016,-0.000022,0.999996,0.002259,-0.001922,-0.000093,0.258888,-0.220214,-0.011162,0.999993,-0.000195,0.003843,0.000177,0.999990,0.004518,-0.003844,-0.004518,0.999982
08677,9.582080,0.838801,-1.931408,0.066637,0.002890,-0.002197,-0.001337,0.004085,-0.007718,-0.888127,-0.199897,-1.214391,0.095821,0.008384,-0.019316,1.000000,-0.000007,0.000020,-0.000039,0.999996,0.002225,-0.001916,-0.000104,0.254999,-0.219526,-0.012451,0.999993,-0.000217,0.003831,0.000200,0.999990,0.004451,-0.003832,-0.004450,0.999983
08678,9.609845,0.831341,-1.949669,0.059405,0.017913,0.027923,-0.001757,0.010329,-0.005680,-0.895367,-0.202611,-1.217481,0.096098,0.008311,-0.019502,1.000000,-0.000009,0.000052,-0.000028,0.999996,0.002186,-0.001945,-0.000093,0.250477,-0.222846,-0.011192,0.999992,-0.000195,0.003889,0.000178,0.999990,0.004372,-0.003890,-0.004371,0.999983
08679,9.567663,0.890728,-2.004181,-0.023065,-0.012281,0.003097,0.002044,0.012712,-0.006619,-0.887775,-0.194730,-1.217479,0.095676,0.008904,-0.020048,1.000000,0.000010,0.000064,-0.000033,0.999996,0.002143,-0.001980,-0.000085,0.245556,-0.226921,-0.010276,0.999992,-0.000179,0.003961,0.000162,0.999991,0.004286,-0.003961,-0.004285,0.999983
08680,9.606557,0.813103,-1.976137,0.041660,0.046958,0.028463,0.001548,0.004729,-0.004169,-0.889839,-0.202166,-1.209987,0.096065,0.008129,-0.019764,1.000000,0.000008,0.000024,-0.000021,0.999996,0.002125,-0.001986,-0.000071,0.243581,-0.227541,-0.008630,0.999992,-0.000151,0.003971,0.000134,0.999991,0.004251,-0.003972,-0.004251,0.999983
08681,9.589411,0.880803,-1.998153,-0.009648,-0.004968,0.022205,-0.005843,0.009196,0.000063,-0.888335,-0.205627,-1.208330,0.095893,0.008807,-0.019986,1.000000,-0.000029,0.000046,0.000000,0.999996,0.002111,-0.002019,-0.000110,0.241874,-0.231367,-0.013088,0.999992,-0.000228,0.004038,0.000211,0.999991,0.004221,-0.004039,-0.004221,0.999983
08682,9.597037,0.791933,-1.979558,0.044326,0.068412,0.017994,-0.000705,0.007076,-0.007400,-0.880505,-0.205333,-1.215650,0.095970,0.007916,-0.019799,1.000000,-0.000004,0.000035,-0.000037,0.999996,0.002076,-0.002031,-0.000128,0.237933,-0.232729,-0.015099,0.999992,-0.000264,0.004062,0.000247,0.999991,0.004153,-0.004063,-0.004152,0.999983
08683,9.606903,0.814358,-1.973934,0.042090,0.046289,0.028464,0.002380,0.007801,-0.005400,-0.892422,-0.200683,-1.214653,0.096068,0.008141,-0.019743,1.000000,0.000012,0.000039,-0.000027,0.999996,0.002049,-0.002047,-0.000121,0.234821,-0.234541,-0.014393,0.999992,-0.000251,0.004093,0.000234,0.999992,0.004098,-0.004094,-0.004097,0.999983
08684,9.595275,0.847372,-1.972814,0.026775,0.016436,0.019827,0.002580,0.007883,-0.006948,-0.887735,-0.205251,-1.212477,0.095952,0.008471,-0.019732,1.000000,0.000013,0.000039,-0.000035,0.999996,0.002017,-0.002058,-0.000122,0.231179,-0.235842,-0.014429,0.999991,-0.000252,0.004116,0.000235,0.999992,0.004035,-0.004117,-0.004034,0.999983
08685,9.600896,0.813011,-1.949055,0.062910,0.038344,0.017449,0.002265,0.006388,-0.007107,-0.893482,-0.199609,-1.216663,0.096009,0.008127,-0.019494,1.000000,0.000011,0.000032,-0.000036,0.999996,0.001985,-0.002064,-0.000115,0.227517,-0.236508,-0.013659,0.999991,-0.000238,0.004128,0.000222,0.999992,0.003971,-0.004129,-0.003970,0.999984
08686,9.585637,0.826773,-1.976589,0.029478,0.037922,0.009358,0.004918,0.004205,-0.006973,-0.889127,-0.196658,-1.213409,0.095856,0.008265,-0.019768,1.000000,0.000025,0.000021,-0.000035,0.999996,0.001963,-0.002062,-0.000102,0.225007,-0.236270,-0.012103,0.999991,-0.000211,0.004124,0.000195,0.999992,0.003927,-0.004124,-0.003926,0.999984
08687,9.595422,0.849153,-1.971333,0.027239,0.015799,0.019827,0.006402,0.003861,-0.006826,-0.885084,-0.206375,-1.211837,0.095954,0.008489,-0.019715,1.000000,0.000032,0.000019,-0.000034,0.999996,0.001942,-0.002057,-0.000076,0.222603,-0.235698,-0.009188,0.999992,-0.000160,0.004114,0.000144,0.999992,0.003885,-0.004114,-0.003884,0.999984
08688,9.579435,0.825713,-1.952518,0.050260,0.029985,-0.001658,-0.002851,0.001682,-0.012828,-0.886385,-0.194747,-1.209031,0.095795,0.008251,-0.019526,1.000000,-0.000014,0.000008,-0.000064,0.999996,0.001891,-0.002030,-0.000093,0.216691,-0.232559,-0.011106,0.999992,-0.000194,0.004059,0.000178,0.999993,0.003782,-0.004060,-0.003781,0.999985
08689,9.579805,0.698881,-1.991288,0.068229,0.162281,-0.004765,0.009972,0.003418,-0.011178,-0.889433,-0.193981,-1.207074,0.095798,0.006984,-0.019914,1.000000,0.000050,0.000017,-0.000056,0.999996,0.001855,-0.002014,-0.000046,0.212635,-0.230721,-0.005707,0.999992,-0.000100,0.004027,0.000085,0.999993,0.003711,-0.004027,-0.003711,0.999985
08690,9.574378,0.900328,-2.022022,-0.041869,-0.007075,0.014116,0.009111,-0.002400,-0.014910,-0.894084,-0.204589,-1.210260,0.095745,0.008997,-0.020219,1.000000,0.000046,-0.000012,-0.000075,0.999996,0.001813,-0.001966,0.000030,0.207718,-0.225323,0.002973,0.999992,0.000052,0.003933,-0.000066,0.999993,0.003625,-0.003932,-0.003626,0.999986
08691,9.606159,0.783662,-1.925058,0.099776,0.059215,0.015070,0.009197,-0.003733,-0.018165,-0.890902,-0.203205,-1.222019,0.096063,0.007829,-0.019248,1.000000,0.000046,-0.000019,-0.000091,0.999997,0.001760,-0.001903,0.000077,0.201691,-0.218088,0.008390,0.999993,0.000146,0.003806,-0.000160,0.999994,0.003520,-0.003806,-0.003521,0.999987
08692,9.586626,0.906665,-1.942953,0.030474,-0.044294,0.010633,0.018334,-0.002965,-0.013870,-0.894184,-0.197768,-1.217503,0.095867,0.009062,-0.019427,1.000000,0.000092,-0.000015,-0.000069,0.999997,0.001739,-0.001855,0.000150,0.199210,-0.212588,0.016820,0.999993,0.000294,0.003710,-0.000306,0.999994,0.003477,-0.003709,-0.003478,0.999987
08693,9.605033,0.915117,-2.013832,-0.030718,-0.021974,0.043690,0.011680,-0.003249,-0.011519,-0.892193,-0.195875,-1.213954,0.096051,0.009147,-0.020136,1.000000,0.000058,-0.000016,-0.000058,0.999997,0.001717,-0.001808,0.000203,0.196759,-0.207200,0.022864,0.999993,0.000399,0.003616,-0.000411,0.999994,0.003434,-0.003615,-0.003436,0.999988
08694,9.579215,0.869689,-2.000467,-0.005352,0.014185,0.011739,0.003655,-0.001776,-0.007607,-0.891673,-0.198177,-1.210566,0.095793,0.008694,-0.020004,1.000000,0.000018,-0.000009,-0.000038,0.999997,0.001701,-0.001779,0.000230,0.194860,-0.203882,0.025965,0.999994,0.000453,0.003558,-0.000465,0.999994,0.003401,-0.003557,-0.003403,0.999988
08695,9.606846,0.862084,-2.019546,-0.012523,0.029173,0.041867,0.003570,-0.000443,-0.004352,-0.883909,-0.197184,-1.208851,0.096069,0.008619,-0.020195,1.000000,0.000018,-0.000002,-0.000022,0.999997,0.001697,-0.001759,0.000237,0.194361,-0.201655,0.026783,0.999994,0.000467,0.003520,-0.000479,0.999994,0.003392,-0.003518,-0.003394,0.999988
08696,9.585239,0.873307,-2.024273,-0.025527,0.021284,0.022761,-0.002913,-0.003395,-0.008511,-0.888795,-0.198090,-1.210228,0.095853,0.008729,-0.020241,1.000000,-0.000015,-0.000017,-0.000043,0.999997,0.001673,-0.001721,0.000226,0.191690,-0.197202,0.025547,0.999994,0.000446,0.003442,-0.000457,0.999994,0.003346,-0.003440,-0.003347,0.999988
08697,9.588093,0.855871,-1.949387,0.049106,0.006246,0.008805,-0.007338,0.000382,-0.003989,-0.889965,-0.201092,-1.207954,0.095881,0.008556,-0.019494,1.000000,-0.000037,0.000002,-0.000020,0.999997,0.001657,-0.001706,0.000180,0.189796,-0.195471,0.020276,0.999994,0.000354,0.003412,-0.000365,0.999994,0.003313,-0.003410,-0.003314,0.999989
08698,9.597752,0.878093,-1.944713,0.046778,-0.015916,0.019268,-0.001059,-0.005900,-0.002182,-0.889662,-0.203342,-1.212784,0.095978,0.008780,-0.019444,1.000000,-0.000005,-0.000030,-0.000011,0.999997,0.001670,-0.001670,0.000163,0.191304,-0.191406,0.018331,0.999994,0.000320,0.003341,-0.000331,0.999994,0.003339,-0.003340,-0.003340,0.999989
08699,9.625331,0.870173,-1.964197,0.039609,-0.000931,0.049396,-0.002744,-0.005639,-0.000781,-0.887482,-0.199249,-1.210532,0.096254,0.008701,-0.019639,1.000000,-0.000014,-0.000028,-0.000004,0.999997,0.001685,-0.001634,0.000133,0.193030,-0.187318,0.014932,0.999995,0.000261,0.003269,-0.000272,0.999994,0.003369,-0.003268,-0.003370,0.999989
08700,9.562711,0.847762,-1.983593,0.018309,0.027321,-0.009744,-0.002944,-0.005720,0.000768,-0.880250,-0.208385,-1.215459,0.095628,0.008478,-0.019833,1.000000,-0.000015,-0.000029,0.000004,0.999997,0.001709,-0.001604,0.000096,0.195822,-0.183856,0.010702,0.999995,0.000187,0.003209,-0.000198,0.999994,0.003418,-0.003208,-0.003418,0.999989
08701,9.616002,0.885831,-2.016606,-0.014128,0.005961,0.052334,-0.007284,-0.003277,0.002035,-0.882149,-0.194591,-1.212514,0.096160,0.008859,-0.020165,1.000000,-0.000036,-0.000016,0.000010,0.999997,0.001727,-0.001585,0.000043,0.197847,-0.181664,0.004560,0.999995,0.000080,0.003171,-0.000091,0.999994,0.003453,-0.003170,-0.003453,0.999989
08702,9.584081,0.837291,-1.979702,0.031823,0.034560,0.009363,-0.016622,-0.004128,-0.000709,-0.882360,-0.198411,-1.213969,0.095841,0.008371,-0.019796,1.000000,-0.000083,-0.000021,-0.000004,0.999997,0.001725,-0.001553,-0.000063,0.197722,-0.177974,-0.007556,0.999995,-0.000132,0.003106,0.000121,0.999994,0.003451,-0.003107,-0.003450,0.999989
08703,9.564552,0.794022,-1.989584,0.036812,0.078215,-0.011560,-0.013993,0.000097,-0.001635,-0.882411,-0.201326,-1.218969,0.095646,0.007938,-0.019896,1.000000,-0.000070,0.000000,-0.000008,0.999997,0.001712,-0.001542,-0.000144,0.196242,-0.176646,-0.016835,0.999995,-0.000294,0.003083,0.000283,0.999994,0.003425,-0.003084,-0.003424,0.999989
08704,9.552125,0.789761,-1.942576,0.077942,0.062985,-0.033609,-0.011823,-0.001334,-0.009389,-0.901947,-0.198232,-1.216713,0.095522,0.007892,-0.019426,1.000000,-0.000059,-0.000007,-0.000047,0.999997,0.001671,-0.001504,-0.000208,0.191516,-0.172323,-0.024072,0.999995,-0.000420,0.003008,0.000410,0.999994,0.003343,-0.003009,-0.003341,0.999990
08705,9.592117,0.787656,-2.008511,0.029886,0.092987,0.018574,-0.008939,-0.000688,-0.005841,-0.886886,-0.195958,-1.209917,0.095921,0.007873,-0.020085,1.000000,-0.000045,-0.000003,-0.000029,0.999998,0.001647,-0.001480,-0.000260,0.188728,-0.169589,-0.030074,0.999995,-0.000525,0.002960,0.000515,0.999994,0.003294,-0.002962,-0.003292,0.999990
08706,9.540803,0.861695,-1.988576,0.006192,0.018417,-0.028849,-0.015448,0.002768,-0.011058,-0.882494,-0.200082,-1.209929,0.095408,0.008610,-0.019888,1.000000,-0.000077,0.000014,-0.000055,0.999998,0.001585,-0.001467,-0.000318,0.181626,-0.168096,-0.036710,0.999995,-0.000641,0.002934,0.000631,0.999995,0.003170,-0.002936,-0.003168,0.999991
08707,9.607326,0.776949,-1.980149,0.063664,0.092757,0.026657,-0.009938,-0.001513,-0.012339,-0.893888,-0.204248,-1.211307,0.096074,0.007763,-0.019801,1.000000,-0.000050,-0.000008,-0.000062,0.999998,0.001532,-0.001426,-0.000369,0.175606,-0.163376,-0.042549,0.999996,-0.000743,0.002851,0.000734,0.999995,0.003065,-0.002854,-0.003063,0.999991
08708,9.600145,0.905012,-2.044429,-0.046593,0.004312,0.044256,-0.008024,0.001053,-0.010326,-0.884967,-0.198600,-1.214119,0.096002,0.009044,-0.020445,1.000000,-0.000040,0.000005,-0.000052,0.999998,0.001488,-0.001405,-0.000417,0.170575,-0.160877,-0.048011,0.999996,-0.000838,0.002808,0.000830,0.999995,0.002977,-0.002810,-0.002975,0.999992
08709,9.587132,0.863705,-1.950661,0.050892,0.003670,0.008797,-0.012279,0.002164,-0.012313,-0.886137,-0.206103,-1.208587,0.095872,0.008630,-0.019508,1.000000,-0.000061,0.000011,-0.000062,0.999998,0.001425,-0.001380,-0.000478,0.163410,-0.158075,-0.054968,0.999996,-0.000959,0.002759,0.000952,0.999995,0.002852,-0.002762,-0.002849,0.999992
08710,9.626576,0.824527,-1.969737,0.059239,0.048190,0.047578,-0.010994,0.001739,-0.010618,-0.890450,-0.196762,-1.204584,0.096266,0.008239,-0.019699,1.000000,-0.000055,0.000009,-0.000053,0.999998,0.001375,-0.001359,-0.000542,0.157689,-0.155639,-0.062307,0.999996,-0.001087,0.002716,0.001080,0.999996,0.002752,-0.002719,-0.002749,0.999993
08711,9.593162,0.868671,-1.973826,0.030745,0.010728,0.019824,-0.005883,-0.002704,-0.008804,-0.881951,-0.198224,-1.207799,0.095932,0.008682,-0.019737,1.000000,-0.000029,-0.000014,-0.000044,0.999998,0.001345,-0.001320,-0.000577,0.154256,-0.151155,-0.066363,0.999996,-0.001158,0.002638,0.001151,0.999996,0.002692,-0.002641,-0.002689,0.999993
08712,9.607539,0.820348,-2.026097,0.007884,0.077062,0.040071,-0.001656,0.002592,-0.007874,-0.891344,-0.201246,-1.207635,0.096075,0.008200,-0.020262,1.000000,-0.000008,0.000013,-0.000039,0.999998,0.001314,-0.001311,-0.000577,0.150676,-0.150168,-0.066288,0.999996,-0.001157,0.002621,0.001150,0.999996,0.002630,-0.002624,-0.002627,0.999993
08713,9.575065,0.900238,-1.949713,0.035891,-0.026788,0.000145,0.002999,0.001647,-0.008984,-0.896194,-0.204198,-1.213030,0.095751,0.008998,-0.019498,1.000000,0.000015,0.000008,-0.000045,0.999998,0.001284,-0.001292,-0.000567,0.147266,-0.147918,-0.065136,0.999996,-0.001137,0.002582,0.001130,0.999996,0.002570,-0.002585,-0.002567,0.999993
08714,9.578573,0.920280,-1.921083,0.053938,-0.056494,-0.000428,0.001628,0.003402,-0.007422,-0.891698,-0.195346,-1.209307,0.095786,0.009199,-0.019212,1.000000,0.000008,0.000017,-0.000037,0.999998,0.001260,-0.001291,-0.000568,0.144452,-0.147800,-0.065331,0.999996,-0.001140,0.002580,0.001134,0.999996,0.002521,-0.002582,-0.002518,0.999993
08715,9.534664,0.905776,-2.010149,-0.028647,-0.005626,-0.026467,0.002313,0.002731,-0.001083,-0.891420,-0.207368,-1.207367,0.095346,0.009057,-0.020103,1.000000,0.000012,0.000014,-0.000005,0.999998,0.001262,-0.001292,-0.000569,0.144709,-0.148007,-0.065433,0.999996,-0.001142,0.002583,0.001136,0.999996,0.002526,-0.002586,-0.002523,0.999993
08716,9.561843,0.860243,-1.982405,0.020495,0.023866,-0.009739,0.003484,0.000893,-0.001096,-0.882353,-0.198207,-1.211966,0.095618,0.008602,-0.019824,1.000000,0.000017,0.000004,-0.000005,0.999998,0.001272,-0.001292,-0.000566,0.145859,-0.148026,-0.064995,0.999996,-0.001134,0.002584,0.001128,0.999996,0.002546,-0.002586,-0.002543,0.999993
08717,9.589586,0.852144,-2.001234,0.013341,0.038844,0.020398,0.008567,0.002857,-0.000339,-0.886912,-0.197680,-1.213670,0.095896,0.008522,-0.020013,1.000000,0.000043,0.000014,-0.000002,0.999998,0.001284,-0.001296,-0.000537,0.147262,-0.148486,-0.061687,0.999996,-0.001077,0.002592,0.001070,0.999996,0.002570,-0.002594,-0.002567,0.999993
08718,9.555740,0.857512,-1.958598,0.041262,0.015952,-0.020770,0.008567,0.002857,-0.000339,-0.886371,-0.194867,-1.207531,0.095557,0.008576,-0.019587,1.000000,0.000043,0.000014,-0.000002,0.999998,0.001297,-0.001301,-0.000499,0.148699,-0.148976,-0.057399,0.999996,-0.001002,0.002600,0.000995,0.999996,0.002595,-0.002603,-0.002593,0.999993
08719,9.550153,0.892373,-1.981556,0.005438,-0.006323,-0.018391,0.003284,0.000811,0.000452,-0.879520,-0.203422,-1.218884,0.095501,0.008924,-0.019816,1.000000,0.000016,0.000004,0.000002,0.999998,0.001311,-0.001297,-0.000498,0.150308,-0.148553,-0.057242,0.999996,-0.000999,0.002593,0.000992,0.999996,0.002623,-0.002595,-0.002621,0.999993
08720,9.607748,0.821855,-2.024494,0.008952,0.075330,0.040084,0.007710,0.006190,-0.000167,-0.889785,-0.203701,-1.208997,0.096077,0.008219,-0.020248,1.000000,0.000039,0.000031,-0.000001,0.999998,0.001317,-0.001316,-0.000469,0.151013,-0.150685,-0.053981,0.999996,-0.000942,0.002630,0.000935,0.999996,0.002636,-0.002632,-0.002633,0.999993
08721,9.583678,0.848948,-1.976687,0.034456,0.030514,0.009368,0.006996,0.004531,0.002770,-0.879435,-0.201548,-1.205624,0.095836,0.008491,-0.019769,1.000000,0.000035,0.000023,0.000014,0.999998,0.001338,-0.001334,-0.000451,0.153401,-0.152758,-0.051828,0.999996,-0.000905,0.002666,0.000897,0.999996,0.002677,-0.002669,-0.002675,0.999993
08722,9.603227,0.892288,-1.966424,0.029728,-0.013610,0.030274,0.004026,0.005215,0.002477,-0.889427,-0.198380,-1.218351,0.096032,0.008924,-0.019667,1.000000,0.000020,0.000026,0.000012,0.999998,0.001356,-0.001357,-0.000454,0.155487,-0.155422,-0.052281,0.999996,-0.000912,0.002713,0.000905,0.999996,0.002714,-0.002715,-0.002711,0.999993
08723,9.611609,0.840257,-1.994866,0.027421,0.045224,0.039508,0.001913,0.002567,0.002013,-0.888154,-0.205695,-1.213383,0.096116,0.008404,-0.019950,1.000000,0.000010,0.000013,0.000010,0.999998,0.001372,-0.001364,-0.000460,0.157303,-0.156285,-0.052980,0.999996,-0.000925,0.002728,0.000917,0.999996,0.002745,-0.002730,-0.002743,0.999993
08724,9.636682,0.848803,-1.961891,0.058709,0.023192,0.058034,-0.000514,-0.001577,0.001389,-0.882166,-0.194046,-1.212510,0.096367,0.008489,-0.019618,1.000000,-0.000003,-0.000008,0.000007,0.999998,0.001393,-0.001353,-0.000485,0.159712,-0.154990,-0.055801,0.999996,-0.000974,0.002705,0.000966,0.999996,0.002787,-0.002708,-0.002785,0.999992
08725,9.605995,0.874822,-2.018116,-0.008264,0.022713,0.041889,-0.002714,-0.002894,0.004180,-0.893733,-0.195398,-1.210842,0.096060,0.008750,-0.020180,1.000000,-0.000014,-0.000014,0.000021,0.999998,0.001424,-0.001340,-0.000518,0.163315,-0.153522,-0.059625,0.999996,-0.001041,0.002679,0.001033,0.999995,0.002850,-0.002682,-0.002848,0.999992
08726,9.611568,0.839580,-1.995349,0.027841,0.044610,0.039510,-0.002828,-0.004308,0.002473,-0.888034,-0.202370,-1.204140,0.096116,0.008397,-0.019952,1.000000,-0.000014,-0.000022,0.000012,0.999998,0.001450,-0.001320,-0.000528,0.166225,-0.151202,-0.060761,0.999996,-0.001060,0.002639,0.001053,0.999995,0.002901,-0.002642,-0.002898,0.999992
08727,9.574094,0.825315,-1.981717,0.037738,0.051170,-0.001082,0.001341,-0.004086,0.007716,-0.889429,-0.202455,-1.213590,0.095741,0.008257,-0.019815,1.000000,0.000007,-0.000020,0.000039,0.999998,0.001504,-0.001310,-0.000546,0.172417,-0.149967,-0.062800,0.999996,-0.001096,0.002617,0.001088,0.999995,0.003009,-0.002621,-0.003006,0.999992
08728,9.565766,0.876610,-1.953390,0.040284,-0.008117,-0.010322,-0.003142,-0.005803,0.002314,-0.890342,-0.202899,-1.216636,0.095658,0.008767,-0.019531,1.000000,-0.000016,-0.000029,0.000012,0.999998,0.001535,-0.001284,-0.000585,0.176026,-0.147027,-0.067228,0.999996,-0.001173,0.002566,0.001165,0.999995,0.003072,-0.002570,-0.003069,0.999992
08729,9.568344,0.859659,-2.005724,0.001992,0.028650,0.001299,0.002141,-0.003758,0.001523,-0.885843,-0.206597,-1.214668,0.095684,0.008598,-0.020055,1.000000,0.000011,-0.000019,0.000008,0.999998,0.001562,-0.001262,-0.000592,0.179101,-0.144480,-0.068073,0.999996,-0.001188,0.002522,0.001180,0.999994,0.003126,-0.002525,-0.003123,0.999992
08730,9.577432,0.843574,-1.954711,0.056144,0.021007,-0.001667,0.007681,-0.005292,0.005205,-0.886969,-0.210384,-1.209397,0.095775,0.008439,-0.019544,1.000000,0.000038,-0.000026,0.000026,0.999998,0.001618,-0.001242,-0.000589,0.185472,-0.142156,-0.067776,0.999996,-0.001183,0.002481,0.001175,0.999994,0.003237,-0.002485,-0.003234,0.999992
08731,9.558504,0.837010,-2.011542,0.004725,0.050124,-0.009149,0.004141,-0.002523,0.000280,-0.881953,-0.200815,-1.212058,0.095585,0.008371,-0.020114,1.000000,0.000021,-0.000013,0.000001,0.999998,0.001639,-0.001222,-0.000585,0.187884,-0.139959,-0.067295,0.999996,-0.001175,0.002443,0.001166,0.999994,0.003279,-0.002447,-0.003276,0.999992
08732,9.598880,0.832427,-1.950789,0.069584,0.028182,0.017439,0.007739,-0.000217,0.000891,-0.887101,-0.203904,-1.214879,0.095989,0.008325,-0.019507,1.000000,0.000039,-0.000001,0.000004,0.999998,0.001666,-0.001216,-0.000579,0.190964,-0.139249,-0.066532,0.999996,-0.001161,0.002430,0.001153,0.999994,0.003333,-0.002434,-0.003330,0.999991
08733,9.586175,0.828631,-2.030806,-0.002269,0.064823,0.020997,0.006140,-0.001288,-0.000963,-0.891072,-0.208390,-1.215716,0.095862,0.008286,-0.020307,1.000000,0.000031,-0.000006,-0.000005,0.999998,0.001681,-0.001200,-0.000563,0.192711,-0.137401,-0.064723,0.999996,-0.001130,0.002398,0.001122,0.999994,0.003363,-0.002402,-0.003361,0.999991
08734,9.627125,0.861806,-2.016506,0.006140,0.028338,0.061000,0.003684,0.000974,-0.002645,-0.889086,-0.201090,-1.219682,0.096271,0.008617,-0.020165,1.000000,0.000018,0.000005,-0.000013,0.999998,0.001685,-0.001193,-0.000572,0.193182,-0.136544,-0.065754,0.999997,-0.001148,0.002383,0.001140,0.999994,0.003372,-0.002387,-0.003369,0.999991
08735,9.589694,0.848110,-2.002430,0.016035,0.034903,0.020409,0.004969,0.000550,-0.000950,-0.893606,-0.200496,-1.215382,0.095897,0.008481,-0.020024,1.000000,0.000025,0.000003,-0.000005,0.999998,0.001695,-0.001185,-0.000561,0.194357,-0.135653,-0.064504,0.999997,-0.001126,0.002368,0.001118,0.999994,0.003392,-0.002371,-0.003389,0.999991
08736,9.599439,0.869873,-1.997446,0.013728,0.012755,0.030856,0.000114,0.001414,0.001707,-0.886132,-0.204467,-1.208337,0.095994,0.008700,-0.019975,1.000000,0.000001,0.000007,0.000009,0.999998,0.001711,-0.001189,-0.000572,0.196159,-0.136094,-0.065823,0.999997,-0.001149,0.002375,0.001141,0.999993,0.003424,-0.002379,-0.003421,0.999991
08737,9.552939,0.871736,-2.034508,-0.030385,0.026719,-0.006763,-0.006482,0.006199,-0.000256,-0.885295,-0.202095,-1.215546,0.095529,0.008717,-0.020348,1.000000,-0.000032,0.000031,-0.000001,0.999998,0.001700,-0.001208,-0.000615,0.194904,-0.138288,-0.070753,0.999996,-0.001235,0.002414,0.001227,0.999993,0.003402,-0.002418,-0.003399,0.999991
08738,9.614936,0.856830,-1.968622,0.047602,0.012434,0.038922,-0.001171,0.001838,0.000012,-0.887530,-0.202592,-1.201500,0.096149,0.008568,-0.019687,1.000000,-0.000006,0.000009,0.000000,0.999998,0.001708,-0.001209,-0.000640,0.195760,-0.138442,-0.073585,0.999996,-0.001284,0.002416,0.001276,0.999993,0.003417,-0.002421,-0.003414,0.999991
08739,9.599684,0.870061,-1.996187,0.014196,0.012113,0.030856,-0.002998,0.007091,-0.001352,-0.892311,-0.204179,-1.214177,0.095996,0.008700,-0.019965,1.000000,-0.000015,0.000035,-0.000007,0.999998,0.001694,-0.001230,-0.000665,0.194185,-0.140845,-0.076395,0.999996,-0.001333,0.002458,0.001325,0.999993,0.003389,-0.002463,-0.003386,0.999991
08740,9.568569,0.858885,-2.004983,0.003553,0.026148,0.001305,-0.005197,0.005775,0.001439,-0.890246,-0.200240,-1.206135,0.095685,0.008589,-0.020053,1.000000,-0.000026,0.000029,0.000007,0.999998,0.001695,-0.001256,-0.000707,0.194379,-0.143817,-0.081218,0.999996,-0.001418,0.002510,0.001409,0.999993,0.003393,-0.002515,-0.003389,0.999991
08741,9.605533,0.835229,-1.971879,0.050427,0.033712,0.028476,-0.001827,0.005253,-0.001364,-0.887573,-0.204297,-1.207754,0.096055,0.008351,-0.019721,1.000000,-0.000009,0.000026,-0.000007,0.999998,0.001687,-0.001269,-0.000726,0.193377,-0.145262,-0.083468,0.999996,-0.001457,0.002535,0.001448,0.999993,0.003375,-0.002540,-0.003371,0.999991
08742,9.596498,0.850884,-2.022876,-0.003506,0.040872,0.031454,0.004227,0.005297,0.000929,-0.889123,-0.201108,-1.217419,0.095964,0.008510,-0.020231,1.000000,0.000021,0.000026,0.000005,0.999997,0.001697,-0.001291,-0.000718,0.194564,-0.147836,-0.082536,0.999996,-0.001441,0.002580,0.001432,0.999993,0.003396,-0.002585,-0.003392,0.999991
08743,9.556517,0.853641,-1.956499,0.044820,0.010463,-0.020778,0.008996,0.005765,0.001528,-0.886842,-0.195258,-1.215941,0.095565,0.008538,-0.019567,1.000000,0.000045,0.000029,0.000008,0.999997,0.001712,-0.001312,-0.000688,0.196289,-0.150261,-0.079058,0.999996,-0.001380,0.002623,0.001371,0.999993,0.003426,-0.002627,-0.003422,0.999991
08744,9.572554,0.877793,-1.974567,0.022112,-0.004135,0.000708,0.002742,0.005639,0.000782,-0.888195,-0.205286,-1.209615,0.095725,0.008779,-0.019748,1.000000,0.000014,0.000028,0.000004,0.999997,0.001717,-0.001332,-0.000675,0.196814,-0.152470,-0.077585,0.999996,-0.001354,0.002661,0.001345,0.999993,0.003435,-0.002666,-0.003431,0.999991
08745,9.556699,0.853233,-1.955790,0.045141,0.010077,-0.020779,0.007739,-0.000217,0.000893,-0.887427,-0.198771,-1.216056,0.095567,0.008534,-0.019557,1.000000,0.000039,-0.000001,0.000004,0.999997,0.001740,-0.001324,-0.000653,0.199456,-0.151627,-0.075046,0.999996,-0.001310,0.002646,0.001301,0.999993,0.003481,-0.002651,-0.003478,0.999990
08746,9.590696,0.847534,-1.997872,0.017547,0.032533,0.020414,0.005055,0.008370,-0.000301,-0.886173,-0.200032,-1.217599,0.095906,0.008476,-0.019983,1.000000,0.000025,0.000042,-0.000002,0.999997,0.001739,-0.001355,-0.000638,0.199329,-0.155157,-0.073416,0.999996,-0.001281,0.002708,0.001272,0.999993,0.003479,-0.002712,-0.003475,0.999990
08747,9.572822,0.877224,-1.973520,0.022570,-0.004761,0.000706,0.011651,0.003585,0.001663,-0.890945,-0.197818,-1.211736,0.095728,0.008774,-0.019736,1.000000,0.000058,0.000018,0.000008,0.999997,0.001762,-0.001367,-0.000596,0.201970,-0.156486,-0.068585,0.999996,-0.001197,0.002731,0.001187,0.999993,0.003525,-0.002735,-0.003522,0.999990
08748,9.604114,0.887978,-1.964040,0.033416,-0.019258,0.030253,0.010308,-0.001065,0.004283,-0.890142,-0.201927,-1.214177,0.096041,0.008883,-0.019639,1.000000,0.000052,-0.000005,0.000021,0.999997,0.001805,-0.001364,-0.000555,0.206869,-0.156165,-0.063929,0.999996,-0.001116,0.002726,0.001106,0.999993,0.003611,-0.002730,-0.003607,0.999990
08749,9.596525,0.811145,-1.974255,0.054023,0.053982,0.018035,0.009251,0.002187,0.006002,-0.886717,-0.207979,-1.208453,0.095965,0.008115,-0.019743,1.000000,0.000046,0.000011,0.000030,0.999997,0.001847,-0.001378,-0.000530,0.211733,-0.157801,-0.061023,0.999996,-0.001065,0.002754,0.001055,0.999993,0.003695,-0.002758,-0.003692,0.999989
08750,9.612535,0.834936,-1.992635,0.031276,0.039313,0.039522,0.011651,0.003584,0.001664,-0.892852,-0.196881,-1.213551,0.096125,0.008351,-0.019928,1.000000,0.000058,0.000018,0.000008,0.999997,0.001873,-0.001392,-0.000497,0.214724,-0.159413,-0.057210,0.999996,-0.000999,0.002782,0.000988,0.999992,0.003748,-0.002786,-0.003745,0.999989
08751,9.609944,0.851279,-1.940555,0.069867,0.002127,0.027870,0.007966,0.002611,0.004307,-0.890408,-0.194101,-1.209856,0.096099,0.008516,-0.019406,1.000000,0.000040,0.000013,0.000022,0.999997,0.001906,-0.001405,-0.000476,0.218465,-0.160861,-0.054800,0.999996,-0.000956,0.002808,0.000946,0.999992,0.003813,-0.002811,-0.003810,0.999989
08752,9.593278,0.790401,-2.001877,0.036402,0.082808,0.018643,0.002742,0.005640,0.000781,-0.887120,-0.202932,-1.213371,0.095932,0.007905,-0.020021,1.000000,0.000014,0.000028,0.000004,0.999997,0.001910,-0.001427,-0.000453,0.218914,-0.163459,-0.052193,0.999996,-0.000911,0.002853,0.000900,0.999992,0.003821,-0.002856,-0.003818,0.999989
08753,9.591237,0.844535,-1.996543,0.018555,0.031105,0.020417,0.007110,-0.003208,0.000577,-0.884054,-0.209273,-1.214580,0.095913,0.008446,-0.019964,1.000000,0.000036,-0.000016,0.000003,0.999997,0.001937,-0.001406,-0.000435,0.222015,-0.160983,-0.050122,0.999996,-0.000875,0.002810,0.000864,0.999992,0.003875,-0.002813,-0.003872,0.999989
08754,9.590588,0.807001,-1.950161,0.075162,0.045357,0.006989,0.003170,-0.000604,-0.001254,-0.885628,-0.209240,-1.210709,0.095906,0.008070,-0.019501,1.000000,0.000016,-0.000003,-0.000006,0.999997,0.001949,-0.001392,-0.000446,0.223444,-0.159403,-0.051472,0.999996,-0.000898,0.002782,0.000887,0.999992,0.003900,-0.002786,-0.003897,0.999989
08755,9.616245,0.853132,-1.963828,0.050025,0.008814,0.038914,0.006568,0.001621,0.000905,-0.883961,-0.203169,-1.212347,0.096162,0.008532,-0.019639,1.000000,0.000033,0.000008,0.000005,0.999997,0.001967,-0.001393,-0.000429,0.225513,-0.159519,-0.049492,0.999996,-0.000864,0.002784,0.000853,0.999992,0.003936,-0.002788,-0.003934,0.999988
08756,9.606546,0.831076,-1.968699,0.052619,0.030482,0.028475,0.006254,0.000125,0.000747,-0.883405,-0.200474,-1.220242,0.096065,0.008312,-0.019687,1.000000,0.000031,0.000001,0.000004,0.999997,0.001991,-0.001387,-0.000427,0.228200,-0.158870,-0.049269,0.999996,-0.000860,0.002773,0.000849,0.999992,0.003983,-0.002776,-0.003980,0.999988
08757,9.567665,0.908866,-1.996012,-0.011957,-0.028949,0.003082,0.006568,0.001621,0.000906,-0.887218,-0.198549,-1.215604,0.095676,0.009090,-0.019961,1.000000,0.000033,0.000008,0.000005,0.999997,0.002009,-0.001388,-0.000410,0.230269,-0.158987,-0.047290,0.999996,-0.000825,0.002775,0.000814,0.999992,0.004019,-0.002778,-0.004017,0.999988
08758,9.575356,0.819456,-1.978051,0.042274,0.044391,-0.001068,-0.001685,0.000262,0.001401,-0.884929,-0.202606,-1.218888,0.095753,0.008195,-0.019781,1.000000,-0.000008,0.000001,0.000007,0.999997,0.002023,-0.001382,-0.000427,0.231848,-0.158309,-0.049225,0.999996,-0.000859,0.002763,0.000848,0.999991,0.004046,-0.002766,-0.004044,0.999988
08759,9.603124,0.811124,-1.996845,0.035159,0.059350,0.029088,0.001712,0.002487,0.003560,-0.889945,-0.205081,-1.215225,0.096031,0.008113,-0.019970,1.000000,0.000009,0.000012,0.000018,0.999997,0.002045,-0.001393,-0.000435,0.234443,-0.159501,-0.050224,0.999996,-0.000877,0.002784,0.000865,0.999991,0.004092,-0.002787,-0.004089,0.999988
08760,9.565752,0.797180,-1.982543,0.045048,0.065893,-0.011504,-0.000856,0.003334,0.000169,-0.884326,-0.198582,-1.213766,0.095657,0.007972,-0.019827,1.000000,-0.000004,0.000017,0.000001,0.999997,0.002050,-0.001400,-0.000458,0.235006,-0.160296,-0.052815,0.999996,-0.000922,0.002798,0.000910,0.999991,0.004102,-0.002801,-0.004099,0.999988
08761,9.557496,0.849193,-1.953649,0.047612,0.006666,-0.020788,0.000602,0.000243,-0.004645,-0.886417,-0.200697,-1.217292,0.095575,0.008490,-0.019537,1.000000,0.000003,0.000001,-0.000023,0.999997,0.002040,-0.001383,-0.000465,0.233822,-0.158353,-0.053583,0.999996,-0.000935,0.002764,0.000924,0.999991,0.004081,-0.002768,-0.004078,0.999988
08762,9.601140,0.865638,-1.991097,0.017644,0.007214,0.030855,0.001799,0.001153,0.000306,-0.890926,-0.198790,-1.213244,0.096011,0.008657,-0.019911,1.000000,0.000009,0.000006,0.000002,0.999997,0.002051,-0.001380,-0.000463,0.235105,-0.157999,-0.053340,0.999996,-0.000931,0.002758,0.000920,0.999991,0.004103,-0.002761,-0.004101,0.999988
08763,9.576150,0.856970,-2.023772,-0.013324,0.028857,0.012367,-0.003625,0.004100,-0.001673,-0.895485,-0.207898,-1.211941,0.095761,0.008569,-0.020240,1.000000,-0.000018,0.000020,-0.000008,0.999997,0.002041,-0.001386,-0.000491,0.233989,-0.158765,-0.056618,0.999996,-0.000988,0.002771,0.000977,0.999991,0.004084,-0.002775,-0.004081,0.999988
08764,9.585293,0.841711,-1.971943,0.040757,0.021182,0.009368,-0.000569,0.002081,-0.004634,-0.887431,-0.199880,-1.213801,0.095853,0.008415,-0.019720,1.000000,-0.000003,0.000010,-0.000023,0.999997,0.002028,-0.001382,-0.000504,0.232470,-0.158266,-0.058049,0.999996,-0.001013,0.002762,0.001002,0.999991,0.004057,-0.002766,-0.004055,0.999988
08765,9.547878,0.828246,-1.957647,0.050638,0.027766,-0.031224,0.004314,0.003964,-0.002327,-0.886174,-0.203102,-1.216095,0.095478,0.008282,-0.019578,1.000000,0.000022,0.000020,-0.000012,0.999997,0.002024,-0.001387,-0.000493,0.232065,-0.158823,-0.056825,0.999996,-0.000992,0.002772,0.000981,0.999991,0.004050,-0.002776,-0.004048,0.999988
08766,9.591575,0.844423,-1.994966,0.020656,0.028296,0.020421,0.014507,0.001486,0.000253,-0.888335,-0.204621,-1.211587,0.095916,0.008446,-0.019950,1.000000,0.000073,0.000007,0.000001,0.999997,0.002050,-0.001386,-0.000434,0.234960,-0.158764,-0.050064,0.999996,-0.000874,0.002771,0.000862,0.999991,0.004101,-0.002775,-0.004098,0.999988
08767,9.573618,0.874163,-1.971014,0.025652,-0.008993,0.000696,0.012052,0.003747,-0.001431,-0.891057,-0.194851,-1.214717,0.095736,0.008742,-0.019711,1.000000,0.000060,0.000019,-0.000007,0.999997,0.002059,-0.001392,-0.000387,0.236045,-0.159440,-0.044637,0.999996,-0.000779,0.002783,0.000768,0.999991,0.004120,-0.002786,-0.004118,0.999988
08768,9.579855,0.876584,-1.994385,0.005348,-0.001669,0.011749,0.006454,0.000207,-0.000800,-0.892066,-0.203992,-1.208721,0.095799,0.008766,-0.019944,1.000000,0.000032,0.000001,-0.000004,0.999997,0.002073,-0.001385,-0.000360,0.237623,-0.158672,-0.041617,0.999996,-0.000726,0.002769,0.000715,0.999991,0.004147,-0.002772,-0.004145,0.999988
08769,9.611167,0.887744,-1.984618,0.016220,-0.016184,0.041287,0.003056,0.007136,0.000938,-0.887866,-0.198243,-1.215454,0.096111,0.008878,-0.019849,1.000000,0.000015,0.000036,0.000005,0.999997,0.002076,-0.001411,-0.000358,0.237972,-0.161659,-0.041316,0.999996,-0.000721,0.002821,0.000709,0.999991,0.004153,-0.002824,-0.004151,0.999987
08770,9.597396,0.808942,-1.970920,0.057237,0.049495,0.018040,0.004769,0.000468,0.000601,-0.887070,-0.206103,-1.212631,0.095974,0.008090,-0.019709,1.000000,0.000024,0.000002,0.000003,0.999997,0.002094,-0.001409,-0.000345,0.240064,-0.161411,-0.039851,0.999996,-0.000696,0.002817,0.000684,0.999991,0.004190,-0.002820,-0.004188,0.999987
08771,9.586276,0.878711,-2.017007,-0.014636,0.005246,0.022805,0.005912,0.005036,-0.000473,-0.882829,-0.203254,-1.210854,0.095862,0.008787,-0.020172,1.000000,0.000030,0.000025,-0.000002,0.999997,0.002099,-0.001423,-0.000328,0.240552,-0.162974,-0.037897,0.999996,-0.000661,0.002844,0.000649,0.999991,0.004198,-0.002847,-0.004197,0.999987
08772,9.588418,0.824245,-2.021985,0.003563,0.056491,0.021048,0.003083,0.000730,0.002002,-0.889962,-0.201518,-1.209458,0.095884,0.008244,-0.020220,1.000000,0.000015,0.000004,0.000010,0.999997,0.002122,-0.001423,-0.000337,0.243238,-0.162932,-0.038932,0.999996,-0.000679,0.002844,0.000667,0.999991,0.004245,-0.002847,-0.004243,0.999987
08773,9.585748,0.840863,-1.970092,0.042127,0.019289,0.009366,0.003083,0.000730,0.002002,-0.888535,-0.203580,-1.220561,0.095857,0.008410,-0.019701,1.000000,0.000015,0.000004,0.000010,0.999997,0.002143,-0.001422,-0.000338,0.245628,-0.162839,-0.039073,0.999996,-0.000682,0.002842,0.000670,0.999991,0.004287,-0.002845,-0.004285,0.999987
08774,9.607262,0.830021,-1.965649,0.055421,0.026678,0.028471,-0.001030,-0.003152,0.002780,-0.887813,-0.205866,-1.203189,0.096073,0.008301,-0.019655,1.000000,-0.000005,-0.000016,0.000014,0.999997,0.002172,-0.001406,-0.000362,0.248966,-0.161053,-0.041818,0.999996,-0.000730,0.002811,0.000718,0.999990,0.004345,-0.002814,-0.004343,0.999987
08775,9.593946,0.788606,-1.999384,0.040057,0.077888,0.018669,0.001512,-0.006748,0.001211,-0.887211,-0.197867,-1.219364,0.095940,0.007887,-0.019991,1.000000,0.000008,-0.000034,0.000006,0.999997,0.002203,-0.001370,-0.000373,0.252504,-0.156874,-0.043130,0.999996,-0.000753,0.002738,0.000741,0.999990,0.004407,-0.002741,-0.004405,0.999987
08776,9.595275,0.862069,-1.966434,0.040113,-0.003302,0.019795,0.009765,-0.005388,0.000717,-0.881135,-0.203509,-1.213751,0.095953,0.008622,-0.019661,1.000000,0.000049,-0.000027,0.000004,0.999997,0.002240,-0.001340,-0.000341,0.256684,-0.153515,-0.039424,0.999996,-0.000688,0.002679,0.000676,0.999990,0.004480,-0.002682,-0.004478,0.999986
08777,9.591660,0.842582,-1.995335,0.022305,0.025971,0.020424,0.000542,-0.004829,-0.000326,-0.885090,-0.198430,-1.207826,0.095917,0.008426,-0.019951,1.000000,0.000003,-0.000024,-0.000002,0.999997,0.002259,-0.001309,-0.000355,0.258870,-0.149965,-0.040996,0.999996,-0.000716,0.002617,0.000704,0.999990,0.004518,-0.002621,-0.004516,0.999986
08778,9.591555,0.842559,-1.995849,0.022469,0.025754,0.020424,0.003511,-0.005514,-0.000031,-0.881926,-0.199570,-1.218078,0.095916,0.008426,-0.019956,1.000000,0.000018,-0.000028,-0.000000,0.999997,0.002285,-0.001276,-0.000351,0.261853,-0.146140,-0.040515,0.999996,-0.000707,0.002551,0.000695,0.999989,0.004570,-0.002554,-0.004568,0.999986
08779,9.563741,0.850609,-1.977396,0.029897,0.010408,-0.009740,0.002341,-0.003676,-0.000021,-0.888242,-0.204075,-1.211108,0.095638,0.008506,-0.019772,1.000000,0.000012,-0.000018,-0.000000,0.999996,0.002305,-0.001251,-0.000355,0.264153,-0.143267,-0.041059,0.999997,-0.000717,0.002500,0.000705,0.999989,0.004610,-0.002504,-0.004609,0.999986
08780,9.581679,0.820570,-2.001521,0.025252,0.047277,0.009997,0.004140,-0.002523,0.000285,-0.892431,-0.211050,-1.216154,0.095817,0.008206,-0.020014,1.000000,0.000021,-0.000013,0.000001,0.999996,0.002327,-0.001232,-0.000349,0.266682,-0.141049,-0.040343,0.999997,-0.000704,0.002462,0.000693,0.999989,0.004654,-0.002465,-0.004653,0.999986
08781,9.553902,0.828618,-1.982898,0.032679,0.031931,-0.020168,0.005825,-0.002785,-0.001116,-0.883505,-0.209802,-1.214707,0.095539,0.008286,-0.019827,1.000000,0.000029,-0.000014,-0.000006,0.999996,0.002344,-0.001208,-0.000335,0.268662,-0.138387,-0.038766,0.999997,-0.000677,0.002415,0.000665,0.999989,0.004689,-0.002418,-0.004687,0.999986
08782,9.612832,0.831653,-1.992578,0.036274,0.032463,0.039530,0.002769,-0.000765,0.001843,-0.884778,-0.204500,-1.213160,0.096128,0.008318,-0.019925,1.000000,0.000014,-0.000004,0.000009,0.999996,0.002371,-0.001202,-0.000360,0.271789,-0.137593,-0.041626,0.999997,-0.000727,0.002401,0.000715,0.999988,0.004744,-0.002405,-0.004742,0.999986
08783,9.581603,0.820357,-2.001974,0.025731,0.046593,0.009999,-0.000970,0.001918,-0.001538,-0.885133,-0.200134,-1.214080,0.095816,0.008203,-0.020021,1.000000,-0.000005,0.000010,-0.000008,0.999996,0.002370,-0.001199,-0.000377,0.271589,-0.137261,-0.043550,0.999997,-0.000760,0.002396,0.000749,0.999988,0.004740,-0.002399,-0.004738,0.999986
08784,9.579523,0.874827,-1.996748,0.007832,-0.005115,0.011747,-0.000114,-0.001415,-0.001706,-0.889710,-0.211238,-1.208764,0.095795,0.008747,-0.019967,1.000000,-0.000001,-0.000007,-0.000009,0.999996,0.002376,-0.001181,-0.000389,0.272326,-0.135178,-0.044935,0.999997,-0.000784,0.002359,0.000773,0.999988,0.004753,-0.002363,-0.004751,0.999986
08785,9.585063,0.840115,-1.973743,0.044024,0.016696,0.009363,-0.003398,-0.002226,-0.002159,-0.885926,-0.207893,-1.217155,0.095851,0.008400,-0.019737,1.000000,-0.000017,-0.000011,-0.000011,0.999996,0.002377,-0.001158,-0.000419,0.272471,-0.132534,-0.048355,0.999997,-0.000844,0.002313,0.000833,0.999988,0.004755,-0.002317,-0.004754,0.999986
08786,9.579420,0.875401,-1.996990,0.008123,-0.005593,0.011746,0.000601,0.000241,-0.004645,-0.892290,-0.200068,-1.223703,0.095794,0.008752,-0.019970,1.000000,0.000003,0.000001,-0.000023,0.999996,0.002371,-0.001143,-0.000444,0.271762,-0.130804,-0.051207,0.999997,-0.000894,0.002283,0.000883,0.999988,0.004743,-0.002287,-0.004741,0.999986
08787,9.578786,0.838369,-1.950312,0.064734,0.008676,-0.001701,-0.006053,-0.000046,-0.002296,-0.890362,-0.197903,-1.212623,0.095788,0.008382,-0.019503,1.000000,-0.000030,-0.000000,-0.000011,0.999996,0.002364,-0.001129,-0.000486,0.270988,-0.129254,-0.055981,0.999997,-0.000977,0.002256,0.000966,0.999988,0.004730,-0.002261,-0.004727,0.999986
08788,9.594704,0.863040,-1.968795,0.041996,-0.005913,0.019786,-0.005739,0.001450,-0.002138,-0.884849,-0.206971,-1.219157,0.095947,0.008629,-0.019689,1.000000,-0.000029,0.000007,-0.000011,0.999996,0.002355,-0.001124,-0.000513,0.269928,-0.128718,-0.059083,0.999997,-0.001031,0.002247,0.001021,0.999988,0.004711,-0.002251,-0.004709,0.999986
08789,9.565512,0.797719,-1.983481,0.049521,0.059709,-0.011486,0.004541,-0.002362,-0.002812,-0.882571,-0.196143,-1.211164,0.095655,0.007976,-0.019834,1.000000,0.000023,-0.000012,-0.000014,0.999996,0.002362,-0.001100,-0.000504,0.270786,-0.125868,-0.058001,0.999997,-0.001012,0.002197,0.001002,0.999988,0.004726,-0.002202,-0.004724,0.999986
08790,9.586993,0.787263,-1.979056,0.062862,0.067101,0.007619,0.011623,0.000837,-0.003297,-0.884333,-0.199793,-1.212511,0.095870,0.007872,-0.019791,1.000000,0.000058,0.000004,-0.000016,0.999996,0.002370,-0.001088,-0.000453,0.271628,-0.124505,-0.052238,0.999997,-0.000912,0.002173,0.000901,0.999988,0.004741,-0.002177,-0.004739,0.999986
08791,9.595184,0.901133,-2.015735,-0.013944,-0.020986,0.033233,0.008426,-0.001310,-0.007003,-0.884961,-0.207023,-1.212366,0.095952,0.009009,-0.020156,1.000000,0.000042,-0.000007,-0.000035,0.999997,0.002361,-0.001059,-0.000420,0.270610,-0.121210,-0.048438,0.999997,-0.000845,0.002116,0.000835,0.999988,0.004723,-0.002119,-0.004721,0.999987
08792,9.620179,0.910425,-1.982786,0.017329,-0.043096,0.051693,-0.002054,0.002421,-0.004782,-0.873788,-0.210957,-1.209684,0.096202,0.009102,-0.019829,1.000000,-0.000010,0.000012,-0.000024,0.999997,0.002344,-0.001052,-0.000439,0.268700,-0.120445,-0.050644,0.999997,-0.000884,0.002102,0.000874,0.999989,0.004690,-0.002106,-0.004688,0.999987
08793,9.570908,0.929773,-1.968251,0.011578,-0.066038,0.002417,-0.011905,-0.000013,-0.006140,-0.887662,-0.200186,-1.217756,0.095709,0.009294,-0.019683,1.000000,-0.000060,-0.000000,-0.000031,0.999997,0.002314,-0.001031,-0.000506,0.265220,-0.117978,-0.058229,0.999997,-0.001016,0.002059,0.001007,0.999989,0.004629,-0.002064,-0.004627,0.999987
08794,9.583204,0.935243,-2.015494,-0.029061,-0.051200,0.024550,-0.012993,-0.008236,0.000960,-0.885294,-0.201039,-1.210535,0.095833,0.009352,-0.020152,1.000000,-0.000065,-0.000041,0.000005,0.999997,0.002333,-0.000985,-0.000596,0.267394,-0.112770,-0.068599,0.999997,-0.001197,0.001968,0.001188,0.999988,0.004667,-0.001974,-0.004665,0.999987
08795,9.594890,0.902911,-2.016339,-0.013275,-0.021856,0.033232,-0.028957,-0.006632,0.005521,-0.888171,-0.199590,-1.211625,0.095949,0.009029,-0.020162,1.000000,-0.000145,-0.000033,0.000028,0.999996,0.002348,-0.000958,-0.000761,0.269196,-0.109603,-0.087423,0.999997,-0.001526,0.001913,0.001517,0.999988,0.004698,-0.001920,-0.004695,0.999987
08796,9.580959,0.824234,-2.003461,0.027791,0.043819,0.010006,-0.037925,-0.009649,0.008957,-0.880126,-0.208504,-1.213483,0.095810,0.008243,-0.020032,1.000000,-0.000190,-0.000048,0.000045,0.999996,0.002376,-0.000927,-0.000964,0.272348,-0.105934,-0.110666,0.999996,-0.001931,0.001849,0.001923,0.999987,0.004753,-0.001858,-0.004750,0.999987
08797,9.621812,0.857197,-1.989708,0.036209,0.007335,0.049951,-0.039611,-0.009386,0.010360,-0.884308,-0.209717,-1.214772,0.096219,0.008573,-0.019894,1.000000,-0.000198,-0.000047,0.000052,0.999996,0.002406,-0.000897,-0.001186,0.275883,-0.102461,-0.136151,0.999996,-0.002376,0.001788,0.002368,0.999986,0.004815,-0.001800,-0.004811,0.999987
08798,9.621110,0.819514,-1.943742,0.092831,0.021523,0.036496,-0.034957,-0.010332,0.009254,-0.892689,-0.210061,-1.218099,0.096212,0.008196,-0.019434,1.000000,-0.000175,-0.000052,0.000046,0.999996,0.002443,-0.000860,-0.001399,0.280046,-0.098190,-0.160576,0.999995,-0.002803,0.001714,0.002794,0.999984,0.004888,-0.001727,-0.004883,0.999987
08799,9.596521,0.847985,-2.023986,0.005427,0.028759,0.031496,-0.033673,-0.010755,0.010951,-0.885133,-0.208234,-1.211825,0.095966,0.008482,-0.020236,1.000000,-0.000168,-0.000054,0.000055,0.999995,0.002485,-0.000826,-0.001594,0.284958,-0.094158,-0.182886,0.999994,-0.003192,0.001643,0.003184,0.999983,0.004973,-0.001659,-0.004968,0.999986
08800,9.617970,0.836786,-2.020038,0.018713,0.036098,0.050601,-0.025191,-0.006568,0.013868,-0.886244,-0.203510,-1.220339,0.096180,0.008372,-0.020198,1.000000,-0.000126,-0.000033,0.000069,0.999995,0.002545,-0.000819,-0.001759,0.291792,-0.093309,-0.201767,0.999992,-0.003521,0.001629,0.003513,0.999981,0.005093,-0.001646,-0.005087,0.999986
08801,9.580507,0.822238,-2.006442,0.028580,0.042702,0.010009,-0.018537,-0.006280,0.011517,-0.883623,-0.200902,-1.207163,0.095805,0.008226,-0.020062,1.000000,-0.000093,-0.000031,0.000058,0.999995,0.002598,-0.000806,-0.001878,0.297880,-0.091781,-0.215463,0.999992,-0.003761,0.001602,0.003752,0.999979,0.005199,-0.001621,-0.005193,0.999985
08802,9.551941,0.793373,-2.067908,-0.020347,0.093885,-0.007788,-0.020648,0.000223,0.014959,-0.883286,-0.211337,-1.213003,0.095519,0.007939,-0.020680,1.000000,-0.000103,0.000001,0.000075,0.999994,0.002651,-0.000831,-0.001997,0.303917,-0.094580,-0.229079,0.999991,-0.003998,0.001651,0.003989,0.999978,0.005304,-0.001672,-0.005298,0.999985
08803,9.549406,0.809411,-2.015820,0.018178,0.056656,-0.019511,-0.019848,0.000552,0.008766,-0.882908,-0.204926,-1.206576,0.095494,0.008096,-0.020159,1.000000,-0.000099,0.000003,0.000044,0.999994,0.002676,-0.000843,-0.002117,0.306846,-0.095945,-0.242832,0.999990,-0.004238,0.001675,0.004229,0.999977,0.005355,-0.001697,-0.005348,0.999984
08804,9.523842,0.762783,-2.001879,0.043643,0.092753,-0.051416,-0.017534,0.003282,0.007683,-0.881104,-0.200626,-1.219521,0.095238,0.007630,-0.020021,1.000000,-0.000088,0.000016,0.000038,0.999994,0.002696,-0.000867,-0.002226,0.309145,-0.098661,-0.255396,0.999989,-0.004457,0.001722,0.004448,0.999976,0.005396,-0.001746,-0.005388,0.999984
08805,9.576716,0.763048,-1.987531,0.067689,0.085795,-0.002791,-0.006225,0.002621,0.004220,-0.887179,-0.210605,-1.209850,0.095767,0.007632,-0.019877,1.000000,-0.000031,0.000013,0.000021,0.999993,0.002712,-0.000879,-0.002274,0.311028,-0.100055,-0.260900,0.999988,-0.004554,0.001746,0.004544,0.999975,0.005428,-0.001771,-0.005420,0.999984
08806,9.560834,0.738563,-1.968792,0.090716,0.099977,-0.024279,0.002000,0.001234,-0.001243,-0.883691,-0.210365,-1.213161,0.095608,0.007385,-0.019688,1.000000,0.000010,0.000006,-0.000006,0.999993,0.002717,-0.000874,-0.002273,0.311606,-0.099495,-0.260703,0.999988,-0.004550,0.001737,0.004541,0.999975,0.005439,-0.001761,-0.005431,0.999984
08807,9.571199,0.798117,-2.010247,0.031970,0.063394,-0.000404,0.010654,0.002755,-0.004838,-0.886368,-0.200851,-1.210789,0.095712,0.007980,-0.020103,1.000000,0.000053,0.000014,-0.000024,0.999993,0.002712,-0.000869,-0.002229,0.311023,-0.098843,-0.255704,0.999989,-0.004463,0.001725,0.004453,0.999975,0.005428,-0.001749,-0.005421,0.999984
08808,9.590677,0.842027,-2.000289,0.027176,0.019289,0.020427,0.011824,0.000917,-0.004851,-0.891134,-0.211613,-1.208185,0.095907,0.008419,-0.020003,1.000000,0.000059,0.000005,-0.000024,0.999994,0.002713,-0.000856,-0.002175,0.311128,-0.097430,-0.249552,0.999989,-0.004355,0.001700,0.004346,0.999976,0.005430,-0.001724,-0.005423,0.999984
08809,9.590694,0.842183,-2.000140,0.027341,0.019090,0.020427,0.010769,0.004168,-0.003130,-0.888523,-0.207775,-1.214300,0.095907,0.008421,-0.020003,1.000000,0.000054,0.000021,-0.000016,0.999994,0.002713,-0.000860,-0.002132,0.311095,-0.097923,-0.244620,0.999989,-0.004269,0.001709,0.004260,0.999976,0.005430,-0.001732,-0.005422,0.999984
08810,9.587200,0.823160,-2.028191,0.009482,0.048327,0.021088,0.008200,0.005019,-0.006519,-0.887587,-0.210264,-1.213514,0.095872,0.008229,-0.020284,1.000000,0.000041,0.000025,-0.000033,0.999994,0.002696,-0.000865,-0.002104,0.309133,-0.098507,-0.241328,0.999990,-0.004212,0.001719,0.004203,0.999977,0.005395,-0.001742,-0.005388,0.999984
08811,9.565739,0.834276,-2.032259,-0.003526,0.040542,0.001985,0.005230,0.005706,-0.006811,-0.882850,-0.205352,-1.207842,0.095657,0.008340,-0.020325,1.000000,0.000026,0.000029,-0.000034,0.999994,0.002670,-0.000869,-0.002083,0.306166,-0.098903,-0.238973,0.999990,-0.004171,0.001726,0.004162,0.999977,0.005344,-0.001748,-0.005336,0.999984
08812,9.581111,0.821720,-2.003769,0.030177,0.040341,0.010014,0.006915,0.005445,-0.008213,-0.888178,-0.210384,-1.214630,0.095811,0.008214,-0.020040,1.000000,0.000035,0.000027,-0.000041,0.999994,0.002642,-0.000870,-0.002055,0.303000,-0.099078,-0.235719,0.999990,-0.004114,0.001729,0.004105,0.999978,0.005288,-0.001751,-0.005281,0.999985
08813,9.612406,0.833528,-1.993847,0.041052,0.025783,0.039531,0.006714,0.005363,-0.006665,-0.885476,-0.206580,-1.215505,0.096124,0.008333,-0.019941,1.000000,0.000034,0.000027,-0.000033,0.999994,0.002620,-0.000872,-0.002027,0.300377,-0.099335,-0.232570,0.999990,-0.004059,0.001734,0.004050,0.999978,0.005243,-0.001755,-0.005235,0.999985
08814,9.597146,0.847215,-2.021342,0.007608,0.025506,0.031504,0.013684,0.007146,-0.008856,-0.889884,-0.207946,-1.211480,0.095971,0.008469,-0.020216,1.000000,0.000068,0.000036,-0.000044,0.999994,0.002593,-0.000879,-0.001967,0.297356,-0.100180,-0.225689,0.999991,-0.003939,0.001748,0.003930,0.999979,0.005190,-0.001769,-0.005183,0.999985
08815,9.575675,0.858481,-2.025380,-0.005403,0.017724,0.012401,0.008600,0.005184,-0.009614,-0.882080,-0.213928,-1.212029,0.095757,0.008581,-0.020256,1.000000,0.000043,0.000026,-0.000048,0.999994,0.002560,-0.000874,-0.001928,0.293520,-0.099643,-0.221148,0.999991,-0.003860,0.001739,0.003851,0.999979,0.005123,-0.001759,-0.005116,0.999985
08816,9.588403,0.862691,-1.944852,0.066643,-0.019551,0.008684,0.014112,0.010055,-0.006989,-0.888839,-0.202864,-1.214979,0.095883,0.008625,-0.019453,1.000000,0.000071,0.000050,-0.000035,0.999995,0.002537,-0.000899,-0.001873,0.290965,-0.102526,-0.214922,0.999991,-0.003751,0.001789,0.003742,0.999980,0.005078,-0.001808,-0.005072,0.999986
08817,9.581490,0.824319,-2.000886,0.030934,0.039238,0.010016,0.013396,0.008396,-0.004051,-0.878989,-0.205946,-1.214998,0.095814,0.008243,-0.020012,1.000000,0.000067,0.000042,-0.000020,0.999995,0.002527,-0.000921,-0.001815,0.289813,-0.105006,-0.208197,0.999992,-0.003634,0.001833,0.003624,0.999981,0.005058,-0.001851,-0.005051,0.999986
08818,9.610730,0.889796,-1.985816,0.023693,-0.026808,0.041248,0.012708,0.000331,-0.000055,-0.884979,-0.204467,-1.203342,0.096107,0.008899,-0.019858,1.000000,0.000064,0.000002,-0.000000,0.999995,0.002551,-0.000914,-0.001762,0.292564,-0.104249,-0.202161,0.999992,-0.003528,0.001819,0.003519,0.999981,0.005106,-0.001837,-0.005100,0.999985
08819,9.609316,0.816003,-2.019414,0.024037,0.053958,0.040199,0.012052,0.003747,-0.001432,-0.891386,-0.202900,-1.205621,0.096093,0.008161,-0.020195,1.000000,0.000060,0.000019,-0.000007,0.999995,0.002561,-0.000920,-0.001714,0.293655,-0.104932,-0.196735,0.999992,-0.003434,0.001831,0.003424,0.999981,0.005125,-0.001849,-0.005119,0.999985
08820,9.591364,0.845722,-1.995431,0.028856,0.016658,0.020427,0.009538,0.000935,0.001200,-0.890239,-0.201569,-1.218915,0.095913,0.008459,-0.019954,1.000000,0.000048,0.000005,0.000006,0.999995,0.002586,-0.000924,-0.001675,0.296568,-0.105367,-0.192214,0.999993,-0.003355,0.001839,0.003345,0.999981,0.005176,-0.001856,-0.005170,0.999985
08821,9.591370,0.845620,-1.995447,0.029020,0.016459,0.020427,0.001685,-0.000261,-0.001401,-0.887567,-0.207162,-1.204248,0.095914,0.008456,-0.019954,1.000000,0.000008,-0.000001,-0.000007,0.999995,0.002593,-0.000911,-0.001680,0.297287,-0.103941,-0.192784,0.999993,-0.003365,0.001814,0.003355,0.999981,0.005189,-0.001832,-0.005182,0.999985
08822,9.576058,0.858760,-2.023450,-0.004460,0.016213,0.012404,-0.003170,0.000604,0.001254,-0.888060,-0.210179,-1.212152,0.095760,0.008588,-0.020235,1.000000,-0.000016,0.000003,0.000006,0.999995,0.002605,-0.000912,-0.001705,0.298650,-0.103952,-0.195703,0.999993,-0.003416,0.001814,0.003406,0.999981,0.005212,-0.001832,-0.005206,0.999985
08823,9.573405,0.875688,-1.971372,0.034039,-0.021034,0.000652,-0.005425,0.002948,-0.001977,-0.888301,-0.204706,-1.214852,0.095734,0.008755,-0.019715,1.000000,-0.000027,0.000015,-0.000010,0.999995,0.002594,-0.000912,-0.001743,0.297417,-0.104037,-0.200010,0.999992,-0.003491,0.001816,0.003481,0.999980,0.005191,-0.001834,-0.005185,0.999985
08824,9.566393,0.837205,-2.027972,-0.001705,0.037723,0.001997,-0.001485,0.000343,-0.000147,-0.887396,-0.203460,-1.217066,0.095664,0.008372,-0.020280,1.000000,-0.000007,0.000002,-0.000001,0.999995,0.002603,-0.000908,-0.001767,0.298457,-0.103478,-0.202787,0.999992,-0.003539,0.001806,0.003530,0.999980,0.005209,-0.001824,-0.005203,0.999985
08825,9.573455,0.875934,-1.971023,0.034320,-0.021472,0.000650,-0.004140,0.002523,-0.000282,-0.887556,-0.209395,-1.212769,0.095734,0.008759,-0.019712,1.000000,-0.000021,0.000013,-0.000001,0.999995,0.002602,-0.000910,-0.001801,0.298347,-0.103752,-0.206599,0.999992,-0.003606,0.001811,0.003596,0.999980,0.005207,-0.001830,-0.005201,0.999985
08826,9.587912,0.826749,-2.023359,0.011776,0.044873,0.021102,0.000542,-0.004829,-0.000330,-0.890284,-0.210896,-1.213142,0.095880,0.008267,-0.020231,1.000000,0.000003,-0.000024,-0.000002,0.999995,0.002622,-0.000881,-0.001814,0.300699,-0.100375,-0.208173,0.999992,-0.003633,0.001752,0.003624,0.999980,0.005248,-0.001771,-0.005242,0.999985
08827,9.560143,0.834741,-2.004688,0.019160,0.029547,-0.009083,0.001284,-0.000424,0.001695,-0.885936,-0.206136,-1.218405,0.095601,0.008348,-0.020047,1.000000,0.000006,-0.000002,0.000008,0.999994,0.002642,-0.000874,-0.001825,0.302975,-0.099604,-0.209342,0.999992,-0.003654,0.001738,0.003644,0.999979,0.005288,-0.001758,-0.005281,0.999985
08828,9.597567,0.848476,-2.018812,0.009603,0.022486,0.031509,0.006340,-0.001207,-0.002508,-0.876979,-0.205025,-1.212956,0.095976,0.008484,-0.020187,1.000000,0.000032,-0.000006,-0.000013,0.999994,0.002653,-0.000857,-0.001811,0.304194,-0.097616,-0.207828,0.999992,-0.003627,0.001704,0.003618,0.999979,0.005309,-0.001723,-0.005303,0.999984
08829,9.591327,0.846018,-1.995484,0.030167,0.014733,0.020426,0.004655,-0.000946,-0.001107,-0.881019,-0.203355,-1.219540,0.095913,0.008460,-0.019954,1.000000,0.000023,-0.000005,-0.000006,0.999994,0.002665,-0.000842,-0.001803,0.305602,-0.095912,-0.206810,0.999992,-0.003610,0.001674,0.003601,0.999979,0.005334,-0.001693,-0.005328,0.999984
08830,9.587774,0.826773,-2.024003,0.012453,0.044028,0.021105,0.004856,-0.000865,-0.002655,-0.883901,-0.205556,-1.214365,0.095878,0.008267,-0.020239,1.000000,0.000024,-0.000004,-0.000013,0.999995,0.002671,-0.000822,-0.001786,0.306271,-0.093602,-0.204880,0.999992,-0.003576,0.001634,0.003567,0.999979,0.005345,-0.001653,-0.005340,0.999984
08831,9.603035,0.813709,-1.996218,0.046202,0.043846,0.029123,0.007311,-0.003127,-0.000972,-0.884485,-0.206528,-1.218490,0.096031,0.008137,-0.019960,1.000000,0.000037,-0.000016,-0.000005,0.999995,0.002692,-0.000797,-0.001765,0.308597,-0.090804,-0.202507,0.999992,-0.003534,0.001585,0.003526,0.999979,0.005386,-0.001604,-0.005380,0.999984
08832,9.597423,0.848743,-2.019384,0.010313,0.021662,0.031511,0.007484,0.003361,-0.003580,-0.884323,-0.214151,-1.205748,0.095974,0.008486,-0.020195,1.000000,0.000037,0.000017,-0.000018,0.999995,0.002688,-0.000797,-0.001737,0.308235,-0.090742,-0.199293,0.999993,-0.003478,0.001584,0.003470,0.999980,0.005380,-0.001602,-0.005374,0.999984
08833,9.587731,0.827139,-2.024059,0.012952,0.043410,0.021107,0.004200,0.002550,-0.004033,-0.881758,-0.203015,-1.209097,0.095877,0.008270,-0.020242,1.000000,0.000021,0.000013,-0.000020,0.999995,0.002680,-0.000791,-0.001726,0.307283,-0.090158,-0.198004,0.999993,-0.003456,0.001574,0.003447,0.999980,0.005363,-0.001592,-0.005358,0.999984
08834,9.575331,0.822555,-1.976887,0.053870,0.028046,-0.001064,0.004601,0.002713,-0.007129,-0.890576,-0.199762,-1.213325,0.095753,0.008223,-0.019770,1.000000,0.000023,0.000014,-0.000036,0.999995,0.002661,-0.000783,-0.001714,0.305088,-0.089170,-0.196700,0.999993,-0.003433,0.001556,0.003425,0.999980,0.005325,-0.001575,-0.005319,0.999985
08835,9.637023,0.809101,-2.037949,0.019215,0.065650,0.070400,0.015335,0.004559,-0.000979,-0.882547,-0.208608,-1.209416,0.096370,0.008092,-0.020381,1.000000,0.000077,0.000023,-0.000005,0.999995,0.002675,-0.000793,-0.001651,0.306641,-0.090395,-0.189453,0.999993,-0.003307,0.001578,0.003298,0.999980,0.005352,-0.001595,-0.005347,0.999984
08836,9.587838,0.827617,-2.023357,0.013357,0.042743,0.021109,0.016707,0.002802,-0.002538,-0.886153,-0.207569,-1.217603,0.095878,0.008277,-0.020234,1.000000,0.000084,0.000014,-0.000013,0.999995,0.002687,-0.000795,-0.001574,0.308095,-0.090615,-0.180617,0.999994,-0.003152,0.001582,0.003144,0.999981,0.005377,-0.001598,-0.005372,0.999984
08837,9.591396,0.847071,-1.994703,0.031442,0.013040,0.020425,0.012967,0.005487,-0.005917,-0.883766,-0.204363,-1.212642,0.095914,0.008469,-0.019949,1.000000,0.000065,0.000027,-0.000030,0.999995,0.002675,-0.000799,-0.001517,0.306623,-0.091135,-0.174061,0.999994,-0.003038,0.001591,0.003029,0.999981,0.005352,-0.001607,-0.005347,0.999984
08838,9.556730,0.816659,-2.032084,0.002966,0.056701,-0.008394,0.009596,0.006010,-0.003115,-0.880171,-0.203168,-1.211468,0.095567,0.008166,-0.020323,1.000000,0.000048,0.000030,-0.000016,0.999995,0.002671,-0.000812,-0.001478,0.306173,-0.092651,-0.169655,0.999994,-0.002961,0.001617,0.002952,0.999981,0.005344,-0.001633,-0.005339,0.999984
08839,9.538827,0.846577,-2.007753,0.007862,0.019434,-0.028182,0.012679,0.006740,-0.001114,-0.889470,-0.202575,-1.212328,0.095388,0.008467,-0.020080,1.000000,0.000063,0.000034,-0.000006,0.999995,0.002676,-0.000833,-0.001427,0.306808,-0.094971,-0.163763,0.999995,-0.002858,0.001658,0.002849,0.999982,0.005355,-0.001673,-0.005350,0.999984
08840,9.591029,0.809901,-1.946788,0.088354,0.026803,0.006948,0.013824,0.002154,-0.006085,-0.880698,-0.203081,-1.225879,0.095910,0.008097,-0.019468,1.000000,0.000069,0.000011,-0.000030,0.999995,0.002671,-0.000823,-0.001358,0.306198,-0.093881,-0.155919,0.999995,-0.002721,0.001639,0.002713,0.999982,0.005344,-0.001653,-0.005340,0.999984
08841,9.563927,0.855582,-1.974351,0.039267,-0.002914,-0.009768,0.013737,0.003488,-0.002831,-0.889439,-0.210333,-1.211833,0.095639,0.008556,-0.019745,1.000000,0.000069,0.000017,-0.000014,0.999995,0.002677,-0.000825,-0.001302,0.306858,-0.094101,-0.149400,0.999995,-0.002608,0.001642,0.002599,0.999982,0.005356,-0.001656,-0.005351,0.999984
08842,9.586066,0.882408,-2.016394,-0.003826,-0.009975,0.022811,0.011109,-0.000738,-0.001904,-0.882236,-0.207635,-1.222016,0.095861,0.008824,-0.020163,1.000000,0.000056,-0.000004,-0.000010,0.999995,0.002694,-0.000809,-0.001264,0.308811,-0.092266,-0.145044,0.999995,-0.002531,0.001610,0.002523,0.999982,0.005390,-0.001624,-0.005386,0.999984
08843,9.595157,0.866721,-1.964967,0.050317,-0.017729,0.019733,0.011222,0.000678,-0.000198,-0.889715,-0.205303,-1.213774,0.095952,0.008668,-0.019650,1.000000,0.000056,0.000003,-0.000001,0.999995,0.002714,-0.000803,-0.001223,0.311141,-0.091646,-0.140384,0.999996,-0.002450,0.001600,0.002441,0.999982,0.005430,-0.001613,-0.005426,0.999984
08844,9.589522,0.901623,-1.988308,0.014414,-0.039909,0.022119,0.001058,-0.003253,-0.001716,-0.881859,-0.205300,-1.210827,0.095896,0.009016,-0.019881,1.000000,0.000005,-0.000016,-0.000009,0.999995,0.002726,-0.000777,-0.001234,0.312494,-0.088599,-0.141704,0.999996,-0.002473,0.001546,0.002465,0.999982,0.005454,-0.001560,-0.005450,0.999984
08845,9.620686,0.912905,-1.979184,0.025288,-0.054497,0.051619,-0.004313,-0.003964,0.002327,-0.887905,-0.205882,-1.216698,0.096207,0.009130,-0.019790,1.000000,-0.000022,-0.000020,0.000012,0.999995,0.002750,-0.000755,-0.001274,0.315201,-0.086118,-0.146253,0.999996,-0.002553,0.001503,0.002544,0.999982,0.005501,-0.001517,-0.005497,0.999984
08846,9.591508,0.847180,-1.994119,0.032874,0.011123,0.020422,-0.008968,-0.003018,0.003432,-0.882049,-0.206493,-1.212788,0.095915,0.008473,-0.019940,1.000000,-0.000045,-0.000015,0.000017,0.999995,0.002772,-0.000741,-0.001337,0.317817,-0.084494,-0.153430,0.999995,-0.002678,0.001475,0.002670,0.999981,0.005547,-0.001490,-0.005543,0.999984
08847,9.584409,0.808267,-2.051354,-0.002784,0.069942,0.021810,-0.010424,-0.009082,0.004349,-0.892741,-0.199370,-1.216333,0.095845,0.008084,-0.020510,1.000000,-0.000052,-0.000045,0.000022,0.999995,0.002809,-0.000700,-0.001411,0.321962,-0.079813,-0.161891,0.999995,-0.002826,0.001393,0.002818,0.999980,0.005619,-0.001409,-0.005615,0.999983
08848,9.599618,0.794903,-2.023923,0.030929,0.069735,0.029821,-0.001544,-0.004729,0.004170,-0.882487,-0.205963,-1.227721,0.095996,0.007951,-0.020237,1.000000,-0.000008,-0.000024,0.000021,0.999995,0.002845,-0.000681,-0.001431,0.326176,-0.077598,-0.164149,0.999995,-0.002865,0.001354,0.002857,0.999980,0.005693,-0.001371,-0.005689,0.999983
08849,9.618953,0.838594,-2.014601,0.026132,0.025636,0.050617,-0.004025,-0.005218,-0.002475,-0.882094,-0.201156,-1.210773,0.096190,0.008384,-0.020144,1.000000,-0.000020,-0.000026,-0.000012,0.999995,0.002851,-0.000644,-0.001465,0.326777,-0.073316,-0.168032,0.999995,-0.002933,0.001280,0.002925,0.999979,0.005703,-0.001296,-0.005700,0.999983
08850,9.585495,0.881719,-2.019408,-0.002541,-0.011627,0.022810,-0.008425,-0.007847,0.003106,-0.881972,-0.203867,-1.213056,0.095856,0.008818,-0.020191,1.000000,-0.000042,-0.000039,0.000016,0.999995,0.002881,-0.000605,-0.001521,0.330268,-0.068803,-0.174467,0.999995,-0.003045,0.001201,0.003038,0.999979,0.005764,-0.001218,-0.005761,0.999983
08851,9.602787,0.814405,-1.997127,0.049367,0.039625,0.029126,-0.012165,-0.005164,-0.000274,-0.882375,-0.200833,-1.211460,0.096028,0.008143,-0.019969,1.000000,-0.000061,-0.000026,-0.000001,0.999994,0.002887,-0.000572,-0.001597,0.330928,-0.065049,-0.183151,0.999994,-0.003197,0.001135,0.003190,0.999978,0.005776,-0.001154,-0.005772,0.999983
08852,9.587363,0.827753,-2.025548,0.015934,0.039431,0.021119,-0.002227,-0.004064,-0.002170,-0.883057,-0.204993,-1.213056,0.095874,0.008276,-0.020254,1.000000,-0.000011,-0.000020,-0.000011,0.999994,0.002893,-0.000542,-0.001611,0.331652,-0.061520,-0.184781,0.999994,-0.003225,0.001074,0.003219,0.999978,0.005788,-0.001092,-0.005785,0.999983
08853,9.575493,0.860472,-2.025396,0.000421,0.009728,0.012414,-0.004568,-0.000388,-0.002148,-0.888046,-0.215329,-1.209900,0.095755,0.008603,-0.020254,1.000000,-0.000023,-0.000002,-0.000011,0.999994,0.002890,-0.000527,-0.001646,0.331219,-0.059829,-0.188759,0.999994,-0.003294,0.001044,0.003288,0.999978,0.005781,-0.001063,-0.005777,0.999983
08854,9.559573,0.836444,-2.006691,0.023411,0.023860,-0.009077,-0.007224,0.001792,-0.002284,-0.884966,-0.206647,-1.219130,0.095596,0.008363,-0.020068,1.000000,-0.000036,0.000009,-0.000011,0.999994,0.002881,-0.000524,-0.001701,0.330209,-0.059512,-0.195037,0.999994,-0.003404,0.001039,0.003398,0.999978,0.005763,-0.001058,-0.005760,0.999983
08855,9.577591,0.806803,-2.030349,0.018866,0.060726,0.010726,-0.002769,0.000765,-0.001843,-0.877239,-0.205144,-1.212646,0.095776,0.008067,-0.020304,1.000000,-0.000014,0.000004,-0.000009,0.999994,0.002878,-0.000515,-0.001726,0.329892,-0.058500,-0.197988,0.999994,-0.003456,0.001021,0.003450,0.999977,0.005758,-0.001041,-0.005754,0.999983
08856,9.553422,0.834394,-1.982785,0.044144,0.015881,-0.020173,0.001142,0.004568,-0.001073,-0.884206,-0.207910,-1.207279,0.095534,0.008344,-0.019830,1.000000,0.000006,0.000023,-0.000005,0.999994,0.002876,-0.000525,-0.001731,0.329692,-0.059579,-0.198486,0.999993,-0.003464,0.001040,0.003458,0.999977,0.005754,-0.001060,-0.005751,0.999983
08857,9.584738,0.845836,-1.972875,0.055020,0.001282,0.009321,0.004827,0.005541,-0.003717,-0.887933,-0.201619,-1.217192,0.095847,0.008457,-0.019731,1.000000,0.000024,0.000028,-0.000019,0.999994,0.002864,-0.000534,-0.001715,0.328283,-0.060630,-0.196732,0.999994,-0.003434,0.001058,0.003427,0.999978,0.005730,-0.001078,-0.005726,0.999983
08858,9.556246,0.817986,-2.033828,0.006132,0.052543,-0.008372,0.009168,0.003100,-0.004981,-0.880313,-0.208113,-1.207927,0.095562,0.008178,-0.020339,1.000000,0.000046,0.000016,-0.000025,0.999994,0.002857,-0.000532,-0.001672,0.327468,-0.060400,-0.191818,0.999994,-0.003348,0.001054,0.003342,0.999978,0.005715,-0.001073,-0.005712,0.999983
08859,9.602857,0.816471,-1.995950,0.050596,0.037929,0.029126,0.008311,0.006434,-0.004812,-0.876227,-0.209560,-1.217139,0.096028,0.008163,-0.019962,1.000000,0.000042,0.000032,-0.000024,0.999994,0.002842,-0.000543,-0.001639,0.325742,-0.061664,-0.187943,0.999994,-0.003280,0.001076,0.003274,0.999978,0.005685,-0.001095,-0.005682,0.999983
08860,9.597365,0.851662,-2.018432,0.014706,0.015747,0.031516,0.010423,0.009083,-0.004348,-0.889239,-0.200256,-1.214886,0.095973,0.008516,-0.020188,1.000000,0.000052,0.000045,-0.000022,0.999995,0.002828,-0.000566,-0.001601,0.324168,-0.064323,-0.183650,0.999994,-0.003205,0.001123,0.003199,0.999979,0.005658,-0.001141,-0.005654,0.999983
08861,9.591309,0.849417,-1.994124,0.035259,0.007984,0.020417,0.007454,0.009767,-0.004643,-0.885022,-0.203630,-1.213605,0.095912,0.008493,-0.019946,1.000000,0.000037,0.000049,-0.000023,0.999995,0.002806,-0.000592,-0.001570,0.321638,-0.067361,-0.180104,0.999994,-0.003143,0.001176,0.003137,0.999979,0.005614,-0.001193,-0.005610,0.999984
08862,9.581777,0.827863,-1.998048,0.037867,0.029739,0.010025,0.006282,0.011605,-0.004632,-0.882454,-0.206050,-1.215451,0.095817,0.008277,-0.019986,1.000000,0.000031,0.000058,-0.000023,0.999995,0.002779,-0.000629,-0.001531,0.318524,-0.071602,-0.175680,0.999995,-0.003066,0.001250,0.003059,0.999980,0.005559,-0.001267,-0.005555,0.999984
08863,9.566629,0.841385,-2.025125,0.004445,0.029558,0.002024,0.007855,0.009929,-0.007739,-0.884737,-0.200306,-1.203648,0.095666,0.008411,-0.020256,1.000000,0.000039,0.000050,-0.000039,0.999995,0.002743,-0.000650,-0.001495,0.314438,-0.073984,-0.171534,0.999995,-0.002994,0.001291,0.002987,0.999980,0.005488,-0.001308,-0.005484,0.999984
08864,9.572417,0.806776,-2.000969,0.040644,0.051279,-0.000366,0.009365,0.012337,-0.002630,-0.889033,-0.200136,-1.215435,0.095723,0.008067,-0.020015,1.000000,0.000047,0.000062,-0.000013,0.999995,0.002727,-0.000694,-0.001448,0.312658,-0.079077,-0.166125,0.999995,-0.002899,0.001380,0.002892,0.999981,0.005457,-0.001396,-0.005453,0.999984
08865,9.570463,0.861319,-1.994870,0.022632,-0.000369,0.001315,0.008826,0.008011,-0.006200,-0.885029,-0.205847,-1.209093,0.095704,0.008611,-0.019952,1.000000,0.000044,0.000040,-0.000031,0.999995,0.002704,-0.000709,-0.001409,0.309923,-0.080831,-0.161717,0.999995,-0.002822,0.001411,0.002815,0.999981,0.005409,-0.001426,-0.005405,0.999984
08866,9.603919,0.818727,-1.989905,0.051638,0.036461,0.029127,0.008826,0.008011,-0.006200,-0.889706,-0.207588,-1.215029,0.096039,0.008185,-0.019903,1.000000,0.000044,0.000040,-0.000031,0.999995,0.002680,-0.000727,-0.001362,0.307262,-0.082872,-0.156338,0.999995,-0.002729,0.001446,0.002721,0.999982,0.005363,-0.001461,-0.005359,0.999985
08867,9.572779,0.807774,-1.998837,0.041090,0.050670,-0.000364,0.014451,0.005148,-0.005765,-0.883053,-0.205897,-1.208798,0.095728,0.008076,-0.019990,1.000000,0.000072,0.000026,-0.000029,0.999995,0.002671,-0.000730,-0.001298,0.306138,-0.083257,-0.148987,0.999996,-0.002600,0.001453,0.002593,0.999982,0.005343,-0.001467,-0.005339,0.999985
08868,9.594373,0.797552,-1.993779,0.054413,0.057973,0.018738,0.013481,0.007066,-0.007303,-0.884919,-0.205847,-1.208618,0.095943,0.007973,-0.019941,1.000000,0.000067,0.000035,-0.000037,0.999995,0.002651,-0.000741,-0.001238,0.303901,-0.084532,-0.142130,0.999996,-0.002481,0.001475,0.002473,0.999983,0.005304,-0.001488,-0.005300,0.999985
08869,9.567347,0.843400,-2.020888,0.005299,0.028303,0.002027,0.017077,0.009375,-0.006691,-0.888138,-0.206769,-1.215892,0.095673,0.008433,-0.020213,1.000000,0.000085,0.000047,-0.000033,0.999996,0.002632,-0.000761,-0.001159,0.301655,-0.086903,-0.132987,0.999996,-0.002321,0.001517,0.002313,0.999983,0.005265,-0.001529,-0.005261,0.999985
08870,9.557163,0.784372,-1.978409,0.064373,0.064379,-0.021854,0.021532,0.008351,-0.006245,-0.882452,-0.207004,-1.219460,0.095571,0.007843,-0.019787,1.000000,0.000108,0.000042,-0.000031,0.999996,0.002623,-0.000780,-0.001060,0.300676,-0.089111,-0.121661,0.999997,-0.002123,0.001555,0.002115,0.999984,0.005248,-0.001566,-0.005244,0.999985
08871,9.557838,0.821951,-2.024728,0.008076,0.049820,-0.008360,0.030216,0.003471,-0.008764,-0.889940,-0.200903,-1.218984,0.095578,0.008218,-0.020248,1.000000,0.000151,0.000017,-0.000044,0.999996,0.002621,-0.000770,-0.000916,0.300441,-0.087951,-0.105240,0.999997,-0.001837,0.001535,0.001829,0.999985,0.005244,-0.001545,-0.005241,0.999985
08872,9.593185,0.890211,-2.033276,-0.019614,-0.008686,0.033908,0.023016,0.008011,-0.006096,-0.886168,-0.197867,-1.214844,0.095931,0.008902,-0.020336,1.000000,0.000115,0.000040,-0.000030,0.999996,0.002614,-0.000785,-0.000807,0.299670,-0.089757,-0.092669,0.999997,-0.001617,0.001567,0.001609,0.999985,0.005230,-0.001575,-0.005228,0.999985
08873,9.590480,0.907365,-1.981064,0.018825,-0.045972,0.022086,0.014138,0.003653,-0.005920,-0.887394,-0.200391,-1.218570,0.095905,0.009072,-0.019812,1.000000,0.000071,0.000018,-0.000030,0.999996,0.002607,-0.000781,-0.000745,0.298777,-0.089324,-0.085551,0.999998,-0.001493,0.001559,0.001485,0.999985,0.005215,-0.001567,-0.005212,0.999985
08874,9.549592,0.874190,-1.995326,0.010751,-0.009791,-0.017790,0.007737,-0.000210,0.000902,-0.889794,-0.206975,-1.209497,0.095496,0.008743,-0.019953,1.000000,0.000039,-0.000001,0.000005,0.999996,0.002629,-0.000775,-0.000709,0.301361,-0.088586,-0.081429,0.999998,-0.001421,0.001546,0.001413,0.999985,0.005260,-0.001554,-0.005258,0.999985
08875,9.664716,0.897254,-1.962689,0.056262,-0.045699,0.089772,0.016020,-0.005248,0.001481,-0.884552,-0.198258,-1.214215,0.096648,0.008975,-0.019624,1.000000,0.000080,-0.000026,0.000007,0.999996,0.002675,-0.000746,-0.000649,0.306543,-0.085296,-0.074592,0.999998,-0.001302,0.001489,0.001294,0.999985,0.005350,-0.001496,-0.005348,0.999985
08876,9.565398,0.897812,-2.014776,-0.011844,-0.024593,0.003701,0.003940,-0.002599,0.001838,-0.884748,-0.204687,-1.217427,0.095654,0.008979,-0.020146,1.000000,0.000020,-0.000013,0.000009,0.999996,0.002704,-0.000732,-0.000642,0.309862,-0.083717,-0.073775,0.999998,-0.001288,0.001461,0.001280,0.999985,0.005408,-0.001468,-0.005406,0.999984
08877,9.600020,0.928324,-1.977343,0.016922,-0.068730,0.032466,-0.006311,-0.005199,0.003569,-0.886498,-0.207979,-1.207501,0.096001,0.009284,-0.019771,1.000000,-0.000032,-0.000026,0.000018,0.999996,0.002733,-0.000708,-0.000693,0.313232,-0.080886,-0.079648,0.999998,-0.001390,0.001412,0.001382,0.999984,0.005467,-0.001419,-0.005465,0.999984
08878,9.600193,0.762731,-1.969526,0.092014,0.077789,0.016350,-0.002514,-0.002810,0.002633,-0.893404,-0.201007,-1.219437,0.096002,0.007628,-0.019694,1.000000,-0.000013,-0.000014,0.000013,0.999996,0.002760,-0.000694,-0.000728,0.316314,-0.079281,-0.083655,0.999998,-0.001460,0.001384,0.001452,0.999984,0.005521,-0.001392,-0.005519,0.999984
08879,9.563287,0.786028,-2.002693,0.045384,0.070088,-0.010744,0.002799,-0.007167,0.002915,-0.881240,-0.205896,-1.216483,0.095633,0.007862,-0.020023,1.000000,0.000014,-0.000036,0.000015,0.999996,0.002801,-0.000659,-0.000735,0.320979,-0.075296,-0.084465,0.999998,-0.001474,0.001314,0.001467,0.999983,0.005602,-0.001322,-0.005600,0.999983
08880,9.592853,0.888707,-2.035502,-0.018413,-0.010339,0.033908,-0.000170,-0.006484,0.002617,-0.874505,-0.197401,-1.214279,0.095929,0.008888,-0.020352,1.000000,-0.000001,-0.000032,0.000013,0.999995,0.002836,-0.000628,-0.000752,0.325043,-0.071679,-0.086407,0.999998,-0.001508,0.001251,0.001501,0.999983,0.005673,-0.001260,-0.005671,0.999983
08881,9.597740,0.816286,-1.966212,0.074299,0.025730,0.018017,-0.003453,-0.007298,0.002163,-0.884546,-0.202130,-1.207451,0.095978,0.008164,-0.019659,1.000000,-0.000017,-0.000036,0.000011,0.999995,0.002867,-0.000591,-0.000789,0.328555,-0.067425,-0.090625,0.999998,-0.001582,0.001177,0.001575,0.999982,0.005734,-0.001186,-0.005732,0.999983
08882,9.601698,0.872950,-1.985205,0.035889,-0.018337,0.030791,-0.001454,-0.006064,0.000920,-0.892207,-0.206872,-1.218962,0.096018,0.008730,-0.019849,1.000000,-0.000007,-0.000030,0.000005,0.999995,0.002891,-0.000556,-0.000804,0.331380,-0.063502,-0.092300,0.999998,-0.001611,0.001108,0.001605,0.999982,0.005784,-0.001118,-0.005782,0.999983
08883,9.545410,0.852689,-2.027959,-0.005756,0.017880,-0.017067,-0.010452,-0.002679,0.003282,-0.893367,-0.212109,-1.209674,0.095454,0.008527,-0.020279,1.000000,-0.000052,-0.000013,0.000016,0.999995,0.002910,-0.000543,-0.000874,0.333482,-0.061899,-0.100322,0.999998,-0.001751,0.001080,0.001745,0.999982,0.005820,-0.001091,-0.005818,0.999982
08884,9.572508,0.807120,-2.000395,0.043618,0.047068,-0.000357,-0.004311,-0.003964,0.002328,-0.890701,-0.206258,-1.222066,0.095725,0.008072,-0.020002,1.000000,-0.000022,-0.000020,0.000012,0.999995,0.002936,-0.000526,-0.000920,0.336548,-0.059920,-0.105560,0.999998,-0.001842,0.001046,0.001836,0.999981,0.005874,-0.001057,-0.005872,0.999982
08885,9.535616,0.830462,-2.033431,-0.003017,0.039380,-0.027448,0.001941,-0.003834,0.003079,-0.884123,-0.204602,-1.211307,0.095356,0.008306,-0.020332,1.000000,0.000010,-0.000019,0.000015,0.999995,0.002970,-0.000506,-0.000930,0.340407,-0.057707,-0.106698,0.999998,-0.001862,0.001007,0.001856,0.999981,0.005941,-0.001018,-0.005939,0.999982
08886,9.539059,0.849648,-2.005353,0.015001,0.009630,-0.028176,0.004454,-0.001024,0.000446,-0.893613,-0.199694,-1.220642,0.095391,0.008497,-0.020053,1.000000,0.000022,-0.000005,0.000002,0.999995,0.002991,-0.000496,-0.000922,0.342748,-0.056503,-0.105812,0.999998,-0.001847,0.000986,0.001841,0.999980,0.005982,-0.000997,-0.005980,0.999982
08887,9.591792,0.850179,-1.991475,0.039091,0.002534,0.020406,0.000770,-0.001996,0.003088,-0.881807,-0.202333,-1.213094,0.095918,0.008503,-0.019914,1.000000,0.000004,-0.000010,0.000015,0.999995,0.003019,-0.000485,-0.000937,0.346031,-0.055244,-0.107512,0.999998,-0.001876,0.000964,0.001871,0.999980,0.006039,-0.000976,-0.006038,0.999981
08888,9.598016,0.852356,-2.015038,0.018848,0.009913,0.031517,-0.001887,0.000183,0.002947,-0.887423,-0.212805,-1.208791,0.095980,0.008525,-0.020151,1.000000,-0.000009,0.000001,0.000015,0.999995,0.003040,-0.000485,-0.000951,0.348361,-0.055252,-0.109105,0.999998,-0.001904,0.000964,0.001898,0.999980,0.006080,-0.000976,-0.006078,0.999981
08889,9.591788,0.849500,-1.991786,0.039390,0.002142,0.020404,-0.000259,-0.005147,0.005870,-0.881912,-0.197677,-1.223093,0.095918,0.008498,-0.019915,1.000000,-0.000001,-0.000026,0.000029,0.999995,0.003086,-0.000466,-0.000975,0.353660,-0.053015,-0.111868,0.999998,-0.001952,0.000925,0.001947,0.999979,0.006172,-0.000937,-0.006171,0.999981
08890,9.588253,0.829752,-2.020511,0.021663,0.031448,0.021137,-0.000828,-0.003071,0.001234,-0.885895,-0.201465,-1.214656,0.095883,0.008298,-0.020204,1.000000,-0.000004,-0.000015,0.000006,0.999995,0.003108,-0.000447,-0.000995,0.356184,-0.050819,-0.114151,0.999998,-0.001992,0.000887,0.001987,0.999979,0.006217,-0.000899,-0.006215,0.999980
08891,9.578543,0.807706,-2.025492,0.024327,0.053205,0.010758,-0.001887,0.000183,0.002948,-0.881852,-0.204089,-1.212082,0.095785,0.008078,-0.020255,1.000000,-0.000009,0.000001,0.000015,0.999994,0.003128,-0.000445,-0.001021,0.358546,-0.050652,-0.117205,0.999998,-0.002046,0.000884,0.002040,0.999978,0.006258,-0.000897,-0.006256,0.999980
08892,9.591710,0.848805,-1.992457,0.039850,0.001514,0.020403,-0.004312,-0.003964,0.002328,-0.886876,-0.205284,-1.219441,0.095917,0.008489,-0.019923,1.000000,-0.000022,-0.000020,0.000012,0.999994,0.003152,-0.000425,-0.001054,0.361300,-0.048293,-0.120889,0.999997,-0.002110,0.000843,0.002105,0.999978,0.006306,-0.000856,-0.006304,0.999980
08893,9.572258,0.804847,-2.002508,0.045012,0.045228,-0.000355,0.000456,-0.003492,0.002931,-0.883838,-0.198258,-1.211122,0.095723,0.008050,-0.020023,1.000000,0.000002,-0.000017,0.000015,0.999994,0.003183,-0.000407,-0.001071,0.364813,-0.046217,-0.122820,0.999997,-0.002144,0.000807,0.002138,0.999977,0.006367,-0.000820,-0.006365,0.999979
08894,9.572232,0.804564,-2.002747,0.045154,0.045032,-0.000355,0.004254,-0.001104,0.001993,-0.889271,-0.201653,-1.218136,0.095722,0.008047,-0.020027,1.000000,0.000021,-0.000006,0.000010,0.999994,0.003209,-0.000399,-0.001056,0.367771,-0.045307,-0.121132,0.999997,-0.002114,0.000791,0.002109,0.999977,0.006419,-0.000804,-0.006417,0.999979
08895,9.588177,0.828521,-2.021378,0.022444,0.030449,0.021138,0.004680,0.001809,0.003855,-0.880166,-0.207567,-1.207209,0.095881,0.008288,-0.020214,1.000000,0.000023,0.000009,0.000019,0.999994,0.003238,-0.000407,-0.001051,0.371056,-0.046227,-0.120546,0.999997,-0.002104,0.000807,0.002099,0.999977,0.006476,-0.000820,-0.006474,0.999979
08896,9.600057,0.795763,-2.021497,0.038292,0.059709,0.029861,0.005081,0.001967,0.000759,-0.883623,-0.204976,-1.217937,0.096000,0.007959,-0.020216,1.000000,0.000025,0.000010,0.000004,0.999994,0.003254,-0.000411,-0.001036,0.372907,-0.046686,-0.118876,0.999998,-0.002075,0.000815,0.002069,0.999977,0.006508,-0.000828,-0.006507,0.999978
08897,9.562670,0.781958,-2.007228,0.048117,0.066372,-0.010731,0.010765,0.004173,-0.003126,-0.887347,-0.203614,-1.210563,0.095626,0.007819,-0.020074,1.000000,0.000054,0.000021,-0.000016,0.999994,0.003254,-0.000415,-0.000993,0.372880,-0.047189,-0.113945,0.999998,-0.001989,0.000824,0.001983,0.999977,0.006508,-0.000837,-0.006506,0.999978
08898,9.560561,0.836290,-2.002048,0.030034,0.014721,-0.009077,0.011109,-0.000736,-0.001900,-0.887250,-0.205506,-1.220608,0.095606,0.008363,-0.020020,1.000000,0.000056,-0.000004,-0.000009,0.999994,0.003270,-0.000401,-0.000946,0.374767,-0.045605,-0.108610,0.999998,-0.001896,0.000796,0.001890,0.999977,0.006541,-0.000808,-0.006539,0.999978
08899,9.609815,0.817606,-2.016392,0.036259,0.037137,0.040239,0.003484,0.000892,-0.001094,-0.888129,-0.203973,-1.209630,0.096098,0.008176,-0.020164,1.000000,0.000017,0.000004,-0.000005,0.999994,0.003277,-0.000395,-0.000943,0.375603,-0.044860,-0.108151,0.999998,-0.001888,0.000783,0.001882,0.999977,0.006555,-0.000795,-0.006554,0.999978
08900,9.570241,0.858412,-1.997190,0.027820,-0.007653,0.001298,0.004087,0.001130,-0.005738,-0.880532,-0.204565,-1.216145,0.095703,0.008582,-0.019972,1.000000,0.000020,0.000006,-0.000029,0.999994,0.003265,-0.000382,-0.000925,0.374224,-0.043376,-0.106160,0.999998,-0.001853,0.000757,0.001848,0.999977,0.006531,-0.000769,-0.006530,0.999978
08901,9.601458,0.870114,-1.987612,0.038700,-0.022291,0.030772,-0.000770,0.001996,-0.003088,-0.889994,-0.202388,-1.210202,0.096015,0.008700,-0.019877,1.000000,-0.000004,0.000010,-0.000015,0.999994,0.003257,-0.000376,-0.000939,0.373244,-0.042713,-0.107783,0.999998,-0.001881,0.000745,0.001876,0.999977,0.006514,-0.000758,-0.006513,0.999979
08902,9.569605,0.821624,-1.950397,0.084580,0.006264,-0.012214,0.005827,-0.002782,-0.001110,-0.887956,-0.204773,-1.219192,0.095696,0.008216,-0.019502,1.000000,0.000029,-0.000014,-0.000006,0.999994,0.003275,-0.000354,-0.000919,0.375314,-0.040259,-0.105435,0.999998,-0.001840,0.000703,0.001836,0.999977,0.006550,-0.000715,-0.006549,0.999978
08903,9.588161,0.828751,-2.021362,0.023626,0.028788,0.021140,0.019189,-0.005854,0.000227,-0.886748,-0.205301,-1.216464,0.095882,0.008290,-0.020210,1.000000,0.000096,-0.000029,0.000001,0.999994,0.003319,-0.000320,-0.000843,0.380415,-0.036375,-0.096705,0.999998,-0.001688,0.000635,0.001684,0.999977,0.006639,-0.000646,-0.006638,0.999978
08904,9.613619,0.874532,-2.036056,-0.001612,-0.007771,0.053008,0.020047,-0.009187,0.000064,-0.881265,-0.202537,-1.212718,0.096137,0.008747,-0.020355,1.000000,0.000100,-0.000046,0.000000,0.999994,0.003372,-0.000272,-0.000760,0.386436,-0.030869,-0.087154,0.999999,-0.001521,0.000539,0.001517,0.999976,0.006745,-0.000549,-0.006744,0.999977
08905,9.583572,0.936521,-2.013151,-0.012521,-0.074493,0.024436,0.003456,-0.010578,0.004301,-0.877937,-0.203150,-1.204216,0.095837,0.009368,-0.020126,1.000000,0.000017,-0.000053,0.000022,0.999994,0.003427,-0.000225,-0.000767,0.392685,-0.025441,-0.087929,0.999999,-0.001535,0.000444,0.001532,0.999975,0.006854,-0.000455,-0.006853,0.999976
08906,9.591699,0.884648,-2.042697,-0.014522,-0.015698,0.033908,-0.008246,-0.010525,-0.003392,-0.886630,-0.201021,-1.218746,0.095918,0.008844,-0.020422,1.000000,-0.000041,-0.000053,-0.000017,0.999994,0.003435,-0.000162,-0.000818,0.393601,-0.018272,-0.093840,0.999999,-0.001638,0.000319,0.001636,0.999975,0.006870,-0.000330,-0.006869,0.999976
08907,9.588759,0.901706,-1.991946,0.023881,-0.053006,0.022039,-0.018216,-0.013936,0.007782,-0.882502,-0.201822,-1.211180,0.095889,0.009019,-0.019914,1.000000,-0.000091,-0.000070,0.000039,0.999993,0.003487,-0.000107,-0.000936,0.399610,-0.011844,-0.107295,0.999998,-0.001873,0.000207,0.001871,0.999974,0.006974,-0.000220,-0.006974,0.999976
08908,9.587161,0.827866,-2.026461,0.024382,0.027766,0.021142,-0.027037,-0.013226,0.003641,-0.882580,-0.211063,-1.217677,0.095873,0.008278,-0.020259,1.000000,-0.000135,-0.000066,0.000018,0.999993,0.003510,-0.000047,-0.001080,0.402194,-0.004905,-0.123802,0.999998,-0.002161,0.000086,0.002160,0.999973,0.007020,-0.000101,-0.007019,0.999975
08909,9.598774,0.795350,-2.027744,0.040274,0.057040,0.029869,-0.019387,-0.012099,0.007792,-0.881966,-0.204720,-1.216064,0.095989,0.007955,-0.020272,1.000000,-0.000097,-0.000060,0.000039,0.999993,0.003557,0.000001,-0.001203,0.407624,0.000570,-0.137818,0.999997,-0.002405,-0.000010,0.002405,0.999972,0.007114,-0.000007,-0.007114,0.999975
08910,9.573584,0.786096,-2.061534,0.009351,0.078832,0.011521,-0.012307,-0.008898,0.007305,-0.887159,-0.205012,-1.212861,0.095736,0.007863,-0.020612,1.000000,-0.000062,-0.000044,0.000037,0.999993,0.003606,0.000034,-0.001292,0.413159,0.004458,-0.148038,0.999997,-0.002584,-0.000078,0.002584,0.999971,0.007211,0.000059,-0.007211,0.999974
08911,9.573478,0.785540,-2.062237,0.009518,0.078634,0.011523,-0.005740,-0.007272,0.008210,-0.880204,-0.205094,-1.217223,0.095735,0.007859,-0.020619,1.000000,-0.000029,-0.000036,0.000041,0.999992,0.003660,0.000058,-0.001346,0.419431,0.007267,-0.154243,0.999996,-0.002692,-0.000127,0.002693,0.999970,0.007320,0.000107,-0.007321,0.999973
08912,9.563021,0.891137,-2.028973,-0.006441,-0.032014,0.003685,-0.012850,-0.004068,0.007628,-0.888666,-0.213249,-1.213265,0.095630,0.008914,-0.020288,1.000000,-0.000064,-0.000020,0.000038,0.999992,0.003699,0.000068,-0.001427,0.423820,0.008435,-0.163506,0.999996,-0.002854,-0.000147,0.002855,0.999969,0.007397,0.000126,-0.007397,0.999973
08913,9.574783,0.858347,-2.029648,0.009453,-0.002742,0.012413,-0.019731,-0.007188,0.006568,-0.882831,-0.211404,-1.216867,0.095748,0.008585,-0.020294,1.000000,-0.000099,-0.000036,0.000033,0.999992,0.003730,0.000096,-0.001548,0.427434,0.011652,-0.177321,0.999995,-0.003095,-0.000203,0.003096,0.999967,0.007460,0.000180,-0.007461,0.999972
08914,9.585101,0.752083,-2.063785,0.025683,0.107438,0.020257,-0.013735,-0.003487,0.002837,-0.874371,-0.201288,-1.220073,0.095851,0.007521,-0.020637,1.000000,-0.000069,-0.000017,0.000014,0.999992,0.003747,0.000112,-0.001641,0.429405,0.013564,-0.188008,0.999995,-0.003281,-0.000237,0.003283,0.999967,0.007494,0.000212,-0.007495,0.999972
08915,9.594224,0.736537,-2.012351,0.079812,0.099590,0.017109,-0.006653,-0.000288,0.002349,-0.888643,-0.209566,-1.208760,0.095942,0.007366,-0.020124,1.000000,-0.000033,-0.000001,0.000012,0.999991,0.003761,0.000117,-0.001691,0.430955,0.014143,-0.193675,0.999994,-0.003380,-0.000247,0.003382,0.999966,0.007522,0.000221,-0.007522,0.999972
08916,9.613655,0.780088,-2.002705,0.074949,0.055461,0.037847,-0.000714,-0.001655,0.002939,-0.890882,-0.215774,-1.205737,0.096137,0.007802,-0.020026,1.000000,-0.000004,-0.000008,0.000015,0.999991,0.003787,0.000126,-0.001707,0.433948,0.015187,-0.195505,0.999994,-0.003412,-0.000265,0.003414,0.999965,0.007574,0.000239,-0.007575,0.999971
08917,9.588046,0.733624,-1.988967,0.100499,0.091602,0.005985,0.013021,0.001832,0.000103,-0.891100,-0.205133,-1.212953,0.095880,0.007338,-0.019890,1.000000,0.000065,0.000009,0.000001,0.999991,0.003809,0.000126,-0.001657,0.436403,0.015115,-0.189816,0.999994,-0.003313,-0.000264,0.003315,0.999965,0.007617,0.000239,-0.007617,0.999971
08918,9.565022,0.835590,-2.035090,0.012613,0.018109,0.002045,0.019160,0.000544,-0.000855,-0.891669,-0.208185,-1.216330,0.095650,0.008357,-0.020350,1.000000,0.000096,0.000003,-0.000004,0.999991,0.003838,0.000127,-0.001574,0.439767,0.015256,-0.180332,0.999995,-0.003147,-0.000266,0.003149,0.999966,0.007675,0.000242,-0.007676,0.999971
08919,9.586512,0.824688,-2.030821,0.026004,0.025417,0.021144,0.016533,-0.003681,0.000076,-0.884511,-0.205710,-1.210716,0.095865,0.008249,-0.020306,1.000000,0.000083,-0.000018,0.000000,0.999991,0.003874,0.000152,-0.001510,0.443949,0.018046,-0.172954,0.999995,-0.003019,-0.000315,0.003021,0.999965,0.007748,0.000292,-0.007749,0.999970
08920,9.611514,0.833003,-1.998362,0.057187,0.003160,0.039483,0.022900,-0.002135,0.002528,-0.885860,-0.209597,-1.222933,0.096115,0.008334,-0.019982,1.000000,0.000114,-0.000011,0.000013,0.999991,0.003927,0.000161,-0.001409,0.449969,0.019029,-0.161365,0.999996,-0.002816,-0.000332,0.002819,0.999965,0.007853,0.000310,-0.007854,0.999969
08921,9.553114,0.866435,-2.035950,-0.002697,-0.011972,-0.006687,0.011278,-0.002972,0.005826,-0.881491,-0.209784,-1.208407,0.095531,0.008668,-0.020358,1.000000,0.000056,-0.000015,0.000029,0.999991,0.003982,0.000170,-0.001376,0.456223,0.020097,-0.157569,0.999996,-0.002750,-0.000351,0.002753,0.999965,0.007963,0.000329,-0.007963,0.999968
08922,9.596165,0.844812,-2.026997,0.023902,0.002801,0.031510,0.004768,0.000470,0.000600,-0.878366,-0.208453,-1.213137,0.095962,0.008449,-0.020270,1.000000,0.000024,0.000002,0.000003,0.999991,0.004000,0.000174,-0.001370,0.458395,0.020524,-0.156865,0.999996,-0.002738,-0.000358,0.002741,0.999964,0.008000,0.000336,-0.008001,0.999968
08923,9.594721,0.770909,-2.060511,0.024462,0.083569,0.030640,0.005939,-0.001367,0.000591,-0.880487,-0.205828,-1.207386,0.095947,0.007710,-0.020604,1.000000,0.000030,-0.000007,0.000003,0.999991,0.004023,0.000187,-0.001356,0.460931,0.022030,-0.155347,0.999996,-0.002711,-0.000385,0.002714,0.999964,0.008045,0.000363,-0.008046,0.999968
08924,9.571114,0.835575,-2.060045,-0.006871,0.024419,0.013174,0.008052,0.001283,0.001051,-0.889449,-0.207571,-1.216341,0.095711,0.008357,-0.020601,1.000000,0.000040,0.000006,0.000005,0.999991,0.004045,0.000186,-0.001332,0.463501,0.021926,-0.152506,0.999996,-0.002662,-0.000383,0.002665,0.999964,0.008090,0.000361,-0.008091,0.999967
08925,9.598284,0.790037,-2.032135,0.042630,0.053603,0.029879,0.005482,0.002124,-0.002341,-0.877439,-0.201564,-1.210094,0.095983,0.007900,-0.020322,1.000000,0.000027,0.000011,-0.000012,0.999991,0.004047,0.000189,-0.001316,0.463675,0.022317,-0.150720,0.999996,-0.002631,-0.000390,0.002634,0.999964,0.008093,0.000368,-0.008094,0.999967
08926,9.558821,0.830615,-2.012686,0.034155,0.008855,-0.009083,0.007395,0.004695,-0.000332,-0.883234,-0.210382,-1.208756,0.095588,0.008307,-0.020129,1.000000,0.000037,0.000023,-0.000002,0.999991,0.004054,0.000175,-0.001283,0.464551,0.020690,-0.146930,0.999997,-0.002564,-0.000361,0.002567,0.999964,0.008108,0.000340,-0.008109,0.999967
08927,9.574813,0.854971,-2.030929,0.011444,-0.005723,0.012410,0.006311,0.005195,-0.003576,-0.885940,-0.209258,-1.209635,0.095748,0.008549,-0.020312,1.000000,0.000032,0.000026,-0.000018,0.999991,0.004045,0.000167,-0.001261,0.463489,0.019774,-0.144381,0.999997,-0.002520,-0.000345,0.002523,0.999964,0.008089,0.000325,-0.008090,0.999967
08928,9.583154,0.803535,-2.059061,0.009439,0.053038,0.021912,-0.003026,0.004332,-0.006325,-0.888913,-0.204910,-1.219472,0.095831,0.008032,-0.020593,1.000000,-0.000015,0.000022,-0.000032,0.999991,0.004017,0.000166,-0.001283,0.460297,0.019644,-0.146906,0.999997,-0.002564,-0.000343,0.002567,0.999964,0.008034,0.000322,-0.008034,0.999968
08929,9.550705,0.883781,-1.982743,0.036692,-0.050790,-0.018588,-0.007280,0.005436,-0.008316,-0.889278,-0.202864,-1.216882,0.095507,0.008833,-0.019830,1.000000,-0.000036,0.000027,-0.000042,0.999991,0.003971,0.000167,-0.001322,0.455021,0.019795,-0.151368,0.999996,-0.002642,-0.000345,0.002645,0.999965,0.007942,0.000324,-0.007942,0.999968
08930,9.598532,0.792260,-2.030097,0.043319,0.052559,0.029881,-0.009906,0.001211,-0.007385,-0.885221,-0.208626,-1.218570,0.095985,0.007918,-0.020302,1.000000,-0.000050,0.000006,-0.000037,0.999991,0.003935,0.000184,-0.001362,0.450856,0.021667,-0.155999,0.999996,-0.002723,-0.000378,0.002726,0.999965,0.007869,0.000357,-0.007870,0.999969
08931,9.558985,0.833675,-2.010642,0.034869,0.007821,-0.009085,-0.011278,0.002970,-0.005828,-0.882946,-0.208011,-1.218344,0.095590,0.008333,-0.020108,1.000000,-0.000056,0.000015,-0.000029,0.999991,0.003900,0.000191,-0.001424,0.446901,0.022524,-0.163113,0.999996,-0.002847,-0.000393,0.002850,0.999966,0.007800,0.000371,-0.007801,0.999970
08932,9.588774,0.772103,-2.034502,0.046156,0.074098,0.019520,-0.005566,-0.001230,-0.008645,-0.878444,-0.205042,-1.216878,0.095888,0.007716,-0.020345,1.000000,-0.000028,-0.000006,-0.000043,0.999991,0.003870,0.000223,-0.001457,0.443384,0.026161,-0.166842,0.999996,-0.002912,-0.000457,0.002915,0.999966,0.007738,0.000434,-0.007740,0.999970
08933,9.580941,0.862127,-2.052744,-0.008050,0.000603,0.023541,-0.002796,-0.001992,-0.006801,-0.885445,-0.211797,-1.219020,0.095810,0.008618,-0.020527,1.000000,-0.000014,-0.000010,-0.000034,0.999991,0.003850,0.000254,-0.001479,0.441191,0.029798,-0.169352,0.999995,-0.002956,-0.000520,0.002960,0.999966,0.007700,0.000497,-0.007702,0.999970
08934,9.607990,0.817438,-2.025138,0.041460,0.029747,0.040244,-0.006080,-0.002805,-0.007253,-0.881865,-0.202435,-1.214334,0.096080,0.008170,-0.020250,1.000000,-0.000030,-0.000014,-0.000036,0.999991,0.003829,0.000291,-0.001518,0.438686,0.033986,-0.173828,0.999995,-0.003034,-0.000593,0.003038,0.999966,0.007656,0.000570,-0.007658,0.999971
08935,9.573167,0.787517,-2.062926,0.013061,0.073565,0.011558,0.002999,0.001630,-0.008984,-0.879454,-0.206662,-1.223911,0.095732,0.007871,-0.020630,1.000000,0.000015,0.000008,-0.000045,0.999992,0.003799,0.000310,-0.001508,0.435288,0.036233,-0.172663,0.999995,-0.003014,-0.000632,0.003018,0.999967,0.007597,0.000609,-0.007599,0.999971
08936,9.608481,0.856173,-2.071606,-0.014666,0.015060,0.053774,0.001541,0.004725,-0.004175,-0.890648,-0.208322,-1.208046,0.096085,0.008560,-0.020718,1.000000,0.000008,0.000024,-0.000021,0.999992,0.003783,0.000307,-0.001503,0.433421,0.035809,-0.172066,0.999995,-0.003003,-0.000625,0.003008,0.999967,0.007565,0.000602,-0.007566,0.999971
08937,9.596162,0.851824,-2.024073,0.026220,-0.000307,0.031505,-0.005683,0.006511,-0.006462,-0.877837,-0.212561,-1.216767,0.095961,0.008515,-0.020244,1.000000,-0.000028,0.000033,-0.000032,0.999992,0.003745,0.000299,-0.001535,0.429039,0.034949,-0.175804,0.999995,-0.003068,-0.000610,0.003073,0.999967,0.007488,0.000587,-0.007490,0.999972
08938,9.564455,0.803711,-1.986158,0.072090,0.028203,-0.011484,0.001855,0.006222,-0.004018,-0.888732,-0.211543,-1.223022,0.095644,0.008035,-0.019864,1.000000,0.000009,0.000031,-0.000020,0.999992,0.003729,0.000285,-0.001537,0.427217,0.033346,-0.176015,0.999995,-0.003072,-0.000582,0.003076,0.999967,0.007456,0.000559,-0.007458,0.999972
08939,9.576900,0.808601,-2.032892,0.031535,0.043175,0.010786,0.002569,-0.000841,0.003392,-0.885572,-0.214271,-1.209720,0.095769,0.008088,-0.020328,1.000000,0.000013,-0.000004,0.000017,0.999992,0.003758,0.000290,-0.001543,0.430615,0.033924,-0.176686,0.999995,-0.003084,-0.000592,0.003088,0.999967,0.007516,0.000569,-0.007517,0.999972
08940,9.592829,0.832667,-2.051486,0.008777,0.028539,0.032282,0.008565,0.002861,-0.000339,-0.883417,-0.204328,-1.215980,0.095928,0.008327,-0.020516,1.000000,0.000043,0.000014,-0.000002,0.999992,0.003774,0.000284,-0.001520,0.432373,0.033164,-0.174097,0.999995,-0.003039,-0.000579,0.003043,0.999967,0.007546,0.000556,-0.007548,0.999971
08941,9.632426,0.791876,-2.070573,0.017577,0.072868,0.071257,0.006053,0.000052,0.002297,-0.884375,-0.215106,-1.209996,0.096324,0.007920,-0.020706,1.000000,0.000030,0.000000,0.000011,0.999992,0.003801,0.000287,-0.001508,0.435457,0.033524,-0.172647,0.999995,-0.003013,-0.000585,0.003018,0.999967,0.007600,0.000562,-0.007602,0.999971
08942,9.513767,0.913243,-2.013118,-0.008207,-0.060950,-0.045669,0.011221,0.000682,-0.000199,-0.882921,-0.201737,-1.209580,0.095138,0.009133,-0.020131,1.000000,0.000056,0.000003,-0.000001,0.999992,0.003823,0.000290,-0.001469,0.438038,0.033895,-0.168201,0.999996,-0.002936,-0.000592,0.002940,0.999966,0.007645,0.000569,-0.007647,0.999971
08943,9.570790,0.805372,-2.009301,0.052468,0.034693,-0.000349,-0.006253,-0.000131,-0.000749,-0.878267,-0.203679,-1.208149,0.095708,0.008053,-0.020093,1.000000,-0.000031,-0.000001,-0.000004,0.999992,0.003823,0.000301,-0.001513,0.438031,0.035131,-0.173268,0.999995,-0.003024,-0.000613,0.003029,0.999966,0.007645,0.000590,-0.007647,0.999971
08944,9.565154,0.840148,-2.032591,0.016479,0.012630,0.002047,-0.000914,-0.001733,0.004488,-0.885154,-0.208797,-1.209566,0.095652,0.008404,-0.020325,1.000000,-0.000005,-0.000009,0.000022,0.999991,0.003855,0.000306,-0.001527,0.441754,0.035712,-0.174848,0.999995,-0.003052,-0.000623,0.003056,0.999966,0.007710,0.000600,-0.007712,0.999970
08945,9.578352,0.881095,-1.999610,0.031961,-0.039085,0.011621,-0.004198,-0.002547,0.004035,-0.878748,-0.206339,-1.204780,0.095784,0.008812,-0.019995,1.000000,-0.000021,-0.000013,0.000020,0.999991,0.003884,0.000317,-0.001567,0.445002,0.037053,-0.179457,0.999995,-0.003132,-0.000647,0.003137,0.999965,0.007767,0.000622,-0.007769,0.999970
08946,9.543051,0.812848,-1.990707,0.059987,0.018991,-0.030586,-0.008138,0.000053,0.002200,-0.883208,-0.204635,-1.218033,0.095430,0.008129,-0.019907,1.000000,-0.000041,0.000000,0.000011,0.999991,0.003896,0.000318,-0.001622,0.446396,0.037173,-0.185702,0.999995,-0.003241,-0.000649,0.003246,0.999964,0.007791,0.000624,-0.007793,0.999969
08947,9.586637,0.829071,-2.028443,0.030158,0.019487,0.021145,-0.005909,-0.005039,0.000478,-0.884675,-0.211747,-1.207421,0.095867,0.008290,-0.020282,1.000000,-0.000030,-0.000025,0.000002,0.999991,0.003912,0.000348,-0.001668,0.448202,0.040670,-0.190968,0.999994,-0.003333,-0.000710,0.003338,0.999964,0.007823,0.000684,-0.007825,0.999969
08948,9.561531,0.820242,-2.061665,-0.000795,0.041330,0.002833,-0.003797,-0.002388,0.000939,-0.889428,-0.212038,-1.217850,0.095616,0.008202,-0.020616,1.000000,-0.000019,-0.000012,0.000005,0.999991,0.003928,0.000364,-0.001701,0.450064,0.042426,-0.194703,0.999994,-0.003398,-0.000740,0.003404,0.999963,0.007855,0.000714,-0.007857,0.999969
08949,9.586517,0.829260,-2.028934,0.030446,0.019061,0.021145,-0.009850,-0.002439,-0.001357,-0.879024,-0.204377,-1.220753,0.095865,0.008291,-0.020289,1.000000,-0.000049,-0.000012,-0.000007,0.999991,0.003926,0.000386,-0.001763,0.449823,0.045025,-0.201821,0.999993,-0.003522,-0.000786,0.003528,0.999963,0.007851,0.000758,-0.007854,0.999969
08950,9.568476,0.859527,-2.005150,0.035190,-0.018194,0.001261,-0.017361,0.000605,0.001157,-0.887155,-0.209462,-1.216871,0.095685,0.008594,-0.020053,1.000000,-0.000087,0.000003,0.000006,0.999991,0.003921,0.000389,-0.001860,0.449288,0.045405,-0.212975,0.999993,-0.003717,-0.000792,0.003723,0.999962,0.007841,0.000763,-0.007844,0.999969
08951,9.605897,0.873458,-2.019174,0.025719,-0.025288,0.041852,-0.016704,-0.002808,0.002540,-0.880259,-0.208641,-1.210194,0.096059,0.008734,-0.020191,1.000000,-0.000084,-0.000014,0.000013,0.999990,0.003930,0.000405,-0.001960,0.450220,0.047295,-0.224401,0.999992,-0.003917,-0.000825,0.003923,0.999961,0.007858,0.000795,-0.007861,0.999969
08952,9.578162,0.881683,-2.000260,0.032956,-0.040586,0.011612,-0.014391,-0.000078,0.001453,-0.881115,-0.204481,-1.215259,0.095782,0.008816,-0.020003,1.000000,-0.000072,-0.000000,0.000007,0.999990,0.003932,0.000409,-0.002044,0.450438,0.047791,-0.234083,0.999991,-0.004086,-0.000834,0.004092,0.999961,0.007862,0.000802,-0.007865,0.999969
08953,9.582981,0.810493,-2.057138,0.013225,0.047772,0.021935,-0.013107,-0.000499,0.003149,-0.878017,-0.209424,-1.213218,0.095830,0.008105,-0.020572,1.000000,-0.000066,-0.000002,0.000016,0.999990,0.003942,0.000413,-0.002126,0.451606,0.048317,-0.243459,0.999991,-0.004249,-0.000843,0.004256,0.999960,0.007882,0.000810,-0.007885,0.999969
08954,9.573332,0.788609,-2.061746,0.015908,0.069526,0.011583,-0.010481,0.003727,0.002220,-0.881624,-0.207909,-1.211633,0.095733,0.007886,-0.020620,1.000000,-0.000052,0.000019,0.000011,0.999990,0.003943,0.000400,-0.002189,0.451732,0.046818,-0.250669,0.999990,-0.004375,-0.000817,0.004381,0.999959,0.007884,0.000783,-0.007888,0.999969
08955,9.576903,0.808120,-2.033069,0.033903,0.039771,0.010793,-0.007424,0.001708,-0.000738,-0.883669,-0.212291,-1.218678,0.095769,0.008080,-0.020332,1.000000,-0.000037,0.000009,-0.000004,0.999990,0.003938,0.000402,-0.002238,0.451148,0.047099,-0.256300,0.999990,-0.004473,-0.000822,0.004480,0.999959,0.007874,0.000787,-0.007878,0.999969
08956,9.567262,0.786680,-2.037466,0.036569,0.061508,0.000442,-0.007368,0.006777,-0.005059,-0.883386,-0.206526,-1.229267,0.095672,0.007864,-0.020378,1.000000,-0.000037,0.000034,-0.000025,0.999990,0.003905,0.000389,-0.002281,0.447377,0.045634,-0.261152,0.999989,-0.004558,-0.000796,0.004564,0.999959,0.007808,0.000761,-0.007812,0.999969
08957,9.570877,0.806675,-2.008362,0.054562,0.031752,-0.000351,-0.005569,0.007931,-0.004754,-0.883873,-0.213893,-1.224645,0.095708,0.008064,-0.020088,1.000000,-0.000028,0.000040,-0.000024,0.999990,0.003872,0.000372,-0.002314,0.443544,0.043625,-0.264959,0.999989,-0.004624,-0.000761,0.004630,0.999959,0.007741,0.000726,-0.007745,0.999970
08958,9.600849,0.745007,-2.031601,0.065945,0.098011,0.028287,-0.001685,0.008984,-0.008945,-0.885290,-0.205489,-1.214545,0.096008,0.007446,-0.020320,1.000000,-0.000008,0.000045,-0.000045,0.999990,0.003823,0.000360,-0.002323,0.437943,0.042214,-0.266087,0.999989,-0.004644,-0.000737,0.004650,0.999960,0.007643,0.000701,-0.007647,0.999971
08959,9.598844,0.800172,-2.025513,0.047813,0.046402,0.029891,0.000114,0.010139,-0.008640,-0.884586,-0.204739,-1.209446,0.095988,0.007998,-0.020260,1.000000,0.000001,0.000051,-0.000043,0.999990,0.003774,0.000340,-0.002324,0.432359,0.039960,-0.266148,0.999989,-0.004645,-0.000697,0.004650,0.999961,0.007546,0.000662,-0.007549,0.999971
08960,9.573947,0.792285,-2.057476,0.016851,0.068281,0.011590,0.006968,0.010509,-0.012535,-0.887391,-0.202830,-1.213559,0.095739,0.007918,-0.020580,1.000000,0.000035,0.000053,-0.000063,0.999990,0.003715,0.000324,-0.002275,0.425641,0.038096,-0.260601,0.999989,-0.004548,-0.000665,0.004553,0.999962,0.007429,0.000631,-0.007432,0.999972
08961,9.605281,0.804287,-2.047252,0.027737,0.053589,0.041038,0.011792,0.007328,-0.005909,-0.879979,-0.207003,-1.224291,0.096052,0.008041,-0.020476,1.000000,0.000059,0.000037,-0.000030,0.999991,0.003697,0.000311,-0.002223,0.423608,0.036604,-0.254608,0.999990,-0.004444,-0.000639,0.004448,0.999963,0.007393,0.000606,-0.007396,0.999972
08962,9.562291,0.825979,-2.055842,0.001396,0.038444,0.002844,0.010596,0.006413,-0.010857,-0.881484,-0.202009,-1.211165,0.095623,0.008256,-0.020561,1.000000,0.000053,0.000032,-0.000054,0.999991,0.003658,0.000312,-0.002162,0.419125,0.036714,-0.247672,0.999990,-0.004323,-0.000641,0.004327,0.999964,0.007315,0.000609,-0.007318,0.999973
08963,9.587361,0.835204,-2.022500,0.032632,0.016159,0.021144,0.010563,0.004097,-0.001579,-0.879184,-0.211318,-1.213199,0.095873,0.008352,-0.020227,1.000000,0.000053,0.000020,-0.000008,0.999991,0.003665,0.000305,-0.002122,0.419883,0.035875,-0.243041,0.999991,-0.004242,-0.000626,0.004246,0.999964,0.007328,0.000595,-0.007331,0.999973
08964,9.587436,0.835302,-2.022102,0.032775,0.015940,0.021143,0.004824,0.005541,-0.003719,-0.884045,-0.210552,-1.219092,0.095874,0.008352,-0.020223,1.000000,0.000024,0.000028,-0.000019,0.999991,0.003654,0.000295,-0.002104,0.418591,0.034695,-0.240975,0.999991,-0.004206,-0.000606,0.004210,0.999964,0.007306,0.000575,-0.007308,0.999973
08965,9.559774,0.843647,-2.002715,0.040040,0.000678,-0.009102,0.004824,0.005541,-0.003719,-0.885580,-0.212991,-1.220743,0.095597,0.008435,-0.020030,1.000000,0.000024,0.000028,-0.000019,0.999991,0.003641,0.000286,-0.002089,0.417184,0.033640,-0.239221,0.999991,-0.004175,-0.000587,0.004179,0.999965,0.007281,0.000557,-0.007284,0.999973
08966,9.562616,0.826903,-2.053960,0.002020,0.037592,0.002847,0.003452,0.007299,-0.002162,-0.891810,-0.211596,-1.213541,0.095625,0.008268,-0.020543,1.000000,0.000017,0.000036,-0.000011,0.999991,0.003633,0.000265,-0.002085,0.416224,0.031220,-0.238807,0.999991,-0.004168,-0.000545,0.004172,0.999965,0.007264,0.000515,-0.007267,0.999973
08967,9.575909,0.868344,-2.020060,0.017475,-0.014136,0.012393,0.006935,0.008192,-0.003256,-0.888298,-0.208149,-1.222120,0.095758,0.008683,-0.020204,1.000000,0.000035,0.000041,-0.000016,0.999991,0.003619,0.000243,-0.002059,0.414705,0.028664,-0.235796,0.999991,-0.004115,-0.000500,0.004119,0.999965,0.007238,0.000470,-0.007240,0.999974
08968,9.566405,0.846589,-2.024013,0.020110,0.007599,0.002046,0.004391,0.011787,-0.001691,-0.882788,-0.197576,-1.210362,0.095663,0.008466,-0.020246,1.000000,0.000022,0.000059,-0.000008,0.999991,0.003605,0.000198,-0.002041,0.413015,0.023535,-0.233800,0.999992,-0.004081,-0.000411,0.004083,0.999966,0.007208,0.000381,-0.007210,0.999974
08969,9.584686,0.816519,-2.046789,0.015707,0.044431,0.021947,0.006646,0.009450,0.001545,-0.882417,-0.206561,-1.220220,0.095846,0.008167,-0.020472,1.000000,0.000033,0.000047,0.000008,0.999991,0.003610,0.000160,-0.002020,0.413599,0.019178,-0.231458,0.999992,-0.004040,-0.000335,0.004042,0.999966,0.007219,0.000306,-0.007220,0.999974
08970,9.588384,0.835634,-2.017463,0.033672,0.014679,0.021142,0.002303,0.011889,0.002805,-0.886260,-0.209001,-1.216326,0.095883,0.008358,-0.020180,1.000000,0.000012,0.000059,0.000014,0.999991,0.003610,0.000108,-0.002009,0.413640,0.013169,-0.230158,0.999992,-0.004017,-0.000230,0.004019,0.999966,0.007219,0.000201,-0.007220,0.999974
08971,9.594812,0.837840,-2.040074,0.013489,0.022074,0.032293,0.004535,0.006799,0.001083,-0.880295,-0.208129,-1.220960,0.095947,0.008379,-0.020404,1.000000,0.000023,0.000034,0.000005,0.999991,0.003616,0.000083,-0.001999,0.414336,0.010312,-0.229072,0.999992,-0.003998,-0.000180,0.003999,0.999966,0.007231,0.000151,-0.007232,0.999974
08972,9.595014,0.837773,-2.039155,0.013649,0.021850,0.032293,-0.000265,0.012731,-0.000589,-0.882578,-0.210483,-1.222438,0.095949,0.008377,-0.020398,1.000000,-0.000001,0.000064,-0.000003,0.999992,0.003598,0.000034,-0.002009,0.412329,0.004759,-0.230200,0.999992,-0.004018,-0.000083,0.004018,0.999966,0.007196,0.000054,-0.007197,0.999974
08973,9.569672,0.791595,-2.024201,0.039224,0.057993,0.000453,0.001220,0.012390,-0.000440,-0.879744,-0.206544,-1.211065,0.095695,0.007916,-0.020248,1.000000,0.000006,0.000062,-0.000002,0.999992,0.003582,-0.000013,-0.002011,0.410519,-0.000632,-0.230503,0.999992,-0.004023,0.000011,0.004023,0.999966,0.007165,-0.000040,-0.007165,0.999974
08974,9.569946,0.791780,-2.022834,0.039391,0.057767,0.000454,-0.000721,0.016223,-0.003518,-0.880409,-0.209766,-1.221686,0.095698,0.007916,-0.020236,1.000000,-0.000004,0.000081,-0.000018,0.999992,0.003544,-0.000071,-0.002021,0.406160,-0.007265,-0.231568,0.999992,-0.004042,0.000127,0.004041,0.999967,0.007089,-0.000155,-0.007088,0.999975
08975,9.542468,0.800226,-2.002475,0.046648,0.042509,-0.029795,0.003935,0.015280,-0.004619,-0.882879,-0.214747,-1.207836,0.095423,0.008000,-0.020032,1.000000,0.000020,0.000076,-0.000023,0.999992,0.003507,-0.000122,-0.002004,0.401905,-0.013173,-0.229714,0.999992,-0.004009,0.000230,0.004008,0.999967,0.007015,-0.000258,-0.007014,0.999975
