// General information: 
//  MT Manager version: 2020.5.0 
//  XDA version: 2020.5.0 build 5678 rev 108182 built on 2021-02-04
// Device information: 
//  DeviceId: 00B46A0D
//  ProductCode: MTW2-3A7G6
//  Firmware Version: 4.4.0
//  Hardware Version: 2.0.0
// Device settings: 
//  Filter Profile: human(46.1)
//  Option Flags: Orientation Smoother Disabled, Position/Velocity Smoother Disabled, Continuous Zero Rotation Update Disabled, AHS Disabled, ICC Disabled
// Coordinate system: ENU
PacketCounter,Acc_X,Acc_Y,Acc_Z,FreeAcc_E,FreeAcc_N,FreeAcc_U,Gyr_X,Gyr_Y,Gyr_Z,Mag_X,Mag_Y,Mag_Z,VelInc_X,VelInc_Y,VelInc_Z,OriInc_q0,OriInc_q1,OriInc_q2,OriInc_q3,Quat_q0,Quat_q1,Quat_q2,Quat_q3,Roll,Pitch,Yaw,Mat[1][1],Mat[2][1],Mat[3][1],Mat[1][2],Mat[2][2],Mat[3][2],Mat[1][3],Mat[2][3],Mat[3][3]
08622,5.246020,-1.066323,8.255139,0.010549,0.020804,0.026243,0.005719,-0.002305,-0.004771,0.808201,-0.517478,-1.552540,0.052459,-0.010667,0.082552,1.000000,0.000029,-0.000012,-0.000024,1.000000,0.000182,0.000601,-0.000124,0.020795,0.068847,-0.014142,0.999999,-0.000247,-0.001202,0.000247,1.000000,0.000363,0.001202,-0.000363,0.999999
08623,5.209879,-1.085059,8.246086,-0.016706,0.000905,0.001478,0.010255,-0.002901,-0.001755,0.817430,-0.510669,-1.547495,0.052097,-0.010855,0.082461,1.000000,0.000051,-0.000015,-0.000009,1.000000,0.000195,0.000594,-0.000108,0.022331,0.068057,-0.012320,0.999999,-0.000215,-0.001188,0.000215,1.000000,0.000390,0.001188,-0.000390,0.999999
08624,5.223317,-1.071161,8.230243,0.003670,0.012559,-0.006202,0.002437,-0.004240,-0.001671,0.818805,-0.507153,-1.546013,0.052231,-0.010713,0.082303,1.000000,0.000012,-0.000021,-0.000008,1.000000,0.000180,0.000574,-0.000055,0.020668,0.065748,-0.006253,0.999999,-0.000109,-0.001148,0.000110,1.000000,0.000361,0.001147,-0.000361,0.999999
08625,5.240932,-1.098908,8.220958,0.021578,-0.016036,-0.001551,0.004977,0.002603,-0.006976,0.814571,-0.507815,-1.547996,0.052410,-0.010993,0.082209,1.000000,0.000025,0.000013,-0.000035,1.000000,0.000187,0.000591,-0.000078,0.021442,0.067693,-0.008900,0.999999,-0.000155,-0.001181,0.000156,1.000000,0.000374,0.001181,-0.000374,0.999999
08626,5.223487,-1.069712,8.230323,0.003964,0.013843,-0.006204,0.008380,-0.002158,-0.007124,0.815130,-0.506325,-1.536523,0.052234,-0.010702,0.082303,1.000000,0.000042,-0.000011,-0.000036,1.000000,0.000209,0.000582,-0.000075,0.023928,0.066658,-0.008577,0.999999,-0.000150,-0.001163,0.000150,1.000000,0.000418,0.001163,-0.000418,0.999999
08627,5.247007,-1.062703,8.254979,0.011221,0.023962,0.026235,0.004024,-0.002975,-0.000893,0.818002,-0.503897,-1.543825,0.052469,-0.010629,0.082550,1.000000,0.000020,-0.000015,-0.000004,1.000000,0.000194,0.000575,-0.000072,0.022178,0.065891,-0.008239,0.999999,-0.000144,-0.001150,0.000144,1.000000,0.000387,0.001150,-0.000387,0.999999
08628,5.241494,-1.096720,8.220892,0.022053,-0.014128,-0.001549,0.005719,-0.002307,-0.004769,0.817004,-0.503691,-1.540411,0.052414,-0.010971,0.082209,1.000000,0.000029,-0.000012,-0.000024,1.000000,0.000198,0.000570,-0.000079,0.022661,0.065281,-0.009067,0.999999,-0.000158,-0.001139,0.000159,1.000000,0.000396,0.001139,-0.000396,0.999999
08629,5.211053,-1.080963,8.245882,-0.015853,0.004677,0.001479,0.007306,-0.001043,-0.003992,0.817737,-0.506591,-1.543862,0.052110,-0.010814,0.082459,1.000000,0.000037,-0.000005,-0.000020,1.000000,0.000205,0.000571,-0.000082,0.023517,0.065378,-0.009338,0.999999,-0.000163,-0.001141,0.000163,1.000000,0.000410,0.001141,-0.000411,0.999999
08630,5.224372,-1.066914,8.230125,0.004661,0.016417,-0.006208,0.006685,-0.002828,-0.003247,0.817109,-0.506189,-1.542866,0.052242,-0.010673,0.082302,1.000000,0.000033,-0.000014,-0.000016,1.000000,0.000209,0.000563,-0.000081,0.023932,0.064561,-0.009265,0.999999,-0.000162,-0.001127,0.000162,1.000000,0.000418,0.001127,-0.000418,0.999999
08631,5.255072,-1.084293,8.278273,0.003999,0.005546,0.052465,0.002715,-0.000150,-0.004681,0.815682,-0.508339,-1.538771,0.052550,-0.010845,0.082783,1.000000,0.000014,-0.000001,-0.000023,1.000000,0.000199,0.000568,-0.000099,0.022806,0.065115,-0.011326,0.999999,-0.000198,-0.001136,0.000198,1.000000,0.000398,0.001136,-0.000398,0.999999
08632,5.227715,-1.048420,8.246983,-0.000318,0.037033,0.007676,0.009014,-0.006472,-0.000263,0.809765,-0.500106,-1.548155,0.052274,-0.010488,0.082471,1.000000,0.000045,-0.000032,-0.000001,1.000000,0.000205,0.000545,-0.000066,0.023524,0.062439,-0.007506,0.999999,-0.000131,-0.001090,0.000131,1.000000,0.000411,0.001090,-0.000411,0.999999
08633,5.248440,-1.058730,8.254578,0.012268,0.027803,0.026224,0.003734,-0.000970,-0.005485,0.814862,-0.505281,-1.549373,0.052484,-0.010590,0.082546,1.000000,0.000019,-0.000005,-0.000027,1.000000,0.000202,0.000545,-0.000084,0.023103,0.062467,-0.009590,0.999999,-0.000167,-0.001090,0.000168,1.000000,0.000403,0.001090,-0.000403,0.999999
08634,5.212279,-1.077487,8.245562,-0.015125,0.007936,0.001478,0.010310,-0.003202,-0.004079,0.825586,-0.508939,-1.546699,0.052121,-0.010780,0.082456,1.000000,0.000052,-0.000016,-0.000020,1.000000,0.000219,0.000528,-0.000075,0.025057,0.060552,-0.008533,0.999999,-0.000149,-0.001057,0.000149,1.000000,0.000437,0.001057,-0.000437,0.999999
08635,5.246173,-1.074452,8.237399,0.017797,0.009813,0.012337,0.004423,-0.005580,-0.000951,0.810150,-0.495484,-1.539610,0.052459,-0.010747,0.082375,1.000000,0.000022,-0.000028,-0.000005,1.000000,0.000204,0.000509,-0.000069,0.023414,0.058300,-0.007936,0.999999,-0.000139,-0.001018,0.000139,1.000000,0.000409,0.001017,-0.000409,0.999999
08636,5.230478,-1.104413,8.236036,0.002959,-0.019974,0.006147,0.007306,-0.001045,-0.003991,0.816945,-0.504527,-1.543520,0.052304,-0.011048,0.082360,1.000000,0.000037,-0.000005,-0.000020,1.000000,0.000211,0.000510,-0.000087,0.024144,0.058440,-0.009912,0.999999,-0.000173,-0.001020,0.000173,1.000000,0.000421,0.001020,-0.000422,0.999999
08637,5.259560,-1.062826,8.294786,-0.000419,0.028901,0.066342,0.005266,0.000593,-0.002382,0.815231,-0.503527,-1.544465,0.052596,-0.010631,0.082947,1.000000,0.000026,0.000003,-0.000012,1.000000,0.000206,0.000520,-0.000089,0.023589,0.059588,-0.010136,0.999999,-0.000177,-0.001040,0.000177,1.000000,0.000412,0.001040,-0.000412,0.999999
08638,5.220421,-1.099072,8.268830,-0.022386,-0.010387,0.027724,0.006685,-0.002830,-0.003246,0.815473,-0.504367,-1.543017,0.052203,-0.010994,0.082689,1.000000,0.000033,-0.000014,-0.000016,1.000000,0.000208,0.000511,-0.000090,0.023845,0.058571,-0.010284,0.999999,-0.000179,-0.001022,0.000180,1.000000,0.000416,0.001022,-0.000416,0.999999
08639,5.246872,-1.071749,8.237305,0.018458,0.012476,0.012332,0.009237,-0.002085,-0.000947,0.818763,-0.509327,-1.550066,0.052468,-0.010722,0.082373,1.000000,0.000046,-0.000010,-0.000005,1.000000,0.000215,0.000509,-0.000074,0.024675,0.058304,-0.008435,0.999999,-0.000147,-0.001018,0.000148,1.000000,0.000431,0.001018,-0.000431,0.999999
08640,5.249837,-1.053937,8.254303,0.013279,0.032478,0.026208,0.003572,-0.000074,0.001494,0.820525,-0.506185,-1.545080,0.052498,-0.010540,0.082543,1.000000,0.000018,-0.000000,0.000007,1.000000,0.000194,0.000517,-0.000054,0.022265,0.059193,-0.006169,0.999999,-0.000108,-0.001033,0.000108,1.000000,0.000389,0.001033,-0.000389,0.999999
08641,5.244202,-1.087895,8.220337,0.024088,-0.005602,-0.001545,0.008380,-0.002165,-0.007121,0.812324,-0.504581,-1.540311,0.052441,-0.010884,0.082203,1.000000,0.000042,-0.000011,-0.000036,1.000000,0.000214,0.000510,-0.000066,0.024543,0.058419,-0.007543,0.999999,-0.000132,-0.001020,0.000132,1.000000,0.000428,0.001020,-0.000428,0.999999
08642,5.210940,-1.089474,8.228298,-0.008503,-0.006188,-0.012401,0.003059,-0.002458,-0.002413,0.822860,-0.511903,-1.552903,0.052108,-0.010897,0.082283,1.000000,0.000015,-0.000012,-0.000012,1.000000,0.000200,0.000504,-0.000069,0.022961,0.057787,-0.007881,0.999999,-0.000138,-0.001009,0.000138,1.000000,0.000401,0.001009,-0.000401,0.999999
08643,5.264895,-1.097575,8.228043,0.036836,-0.014188,0.017009,0.005941,0.002077,-0.005453,0.815352,-0.502645,-1.538705,0.052650,-0.010980,0.082280,1.000000,0.000030,0.000010,-0.000027,1.000000,0.000207,0.000520,-0.000083,0.023721,0.059547,-0.009468,0.999999,-0.000165,-0.001039,0.000166,1.000000,0.000414,0.001039,-0.000414,0.999999
08644,5.247475,-1.068657,8.237323,0.019280,0.015684,0.012326,0.004079,-0.003277,-0.003216,0.818284,-0.513500,-1.539236,0.052473,-0.010689,0.082374,1.000000,0.000020,-0.000016,-0.000016,1.000000,0.000200,0.000510,-0.000083,0.022925,0.058488,-0.009442,0.999999,-0.000165,-0.001021,0.000165,1.000000,0.000400,0.001021,-0.000400,0.999999
08645,5.217009,-1.052952,8.262313,-0.018622,0.034498,0.015343,0.008892,0.000218,-0.003213,0.817839,-0.503559,-1.543108,0.052170,-0.010534,0.082623,1.000000,0.000044,0.000001,-0.000016,1.000000,0.000213,0.000518,-0.000078,0.024366,0.059359,-0.008934,0.999999,-0.000156,-0.001036,0.000156,1.000000,0.000425,0.001036,-0.000425,0.999999
08646,5.234593,-1.080544,8.253107,-0.000684,0.005826,0.020027,0.004646,-0.001193,-0.001636,0.813127,-0.509952,-1.541586,0.052345,-0.010808,0.082531,1.000000,0.000023,-0.000006,-0.000008,1.000000,0.000207,0.000521,-0.000064,0.023691,0.059743,-0.007305,0.999999,-0.000127,-0.001043,0.000128,1.000000,0.000413,0.001043,-0.000414,0.999999
08647,5.234640,-1.080029,8.253144,-0.000514,0.006487,0.020027,0.005266,0.000591,-0.002381,0.815334,-0.502608,-1.542797,0.052347,-0.010803,0.082531,1.000000,0.000026,0.000003,-0.000012,1.000000,0.000202,0.000531,-0.000066,0.023137,0.060889,-0.007528,0.999999,-0.000131,-0.001063,0.000132,1.000000,0.000404,0.001063,-0.000404,0.999999
08648,5.255068,-1.090486,8.260919,0.012036,-0.002763,0.038583,0.003680,-0.000674,-0.003157,0.818572,-0.505691,-1.539692,0.052550,-0.010907,0.082609,1.000000,0.000018,-0.000003,-0.000016,1.000000,0.000194,0.000533,-0.000063,0.022225,0.061035,-0.007164,0.999999,-0.000125,-0.001065,0.000125,1.000000,0.000388,0.001065,-0.000388,0.999999
08649,5.231921,-1.096182,8.236219,0.005105,-0.011607,0.006160,0.008272,-0.001567,-0.002467,0.816963,-0.506933,-1.540803,0.052318,-0.010966,0.082362,1.000000,0.000041,-0.000008,-0.000012,1.000000,0.000201,0.000532,-0.000056,0.023068,0.060949,-0.006373,0.999999,-0.000111,-0.001064,0.000112,1.000000,0.000403,0.001064,-0.000403,0.999999
08650,5.232006,-1.095264,8.236287,0.005308,-0.011000,0.006160,0.007015,0.000955,-0.008582,0.816308,-0.504791,-1.537475,0.052320,-0.010958,0.082362,1.000000,0.000035,0.000005,-0.000043,1.000000,0.000223,0.000541,-0.000075,0.025561,0.062031,-0.008616,0.999999,-0.000150,-0.001083,0.000151,1.000000,0.000446,0.001083,-0.000446,0.999999
08651,5.234984,-1.077143,8.253303,0.000161,0.009039,0.020025,0.005666,-0.002013,-0.002439,0.818048,-0.507253,-1.542981,0.052349,-0.010774,0.082533,1.000000,0.000028,-0.000010,-0.000012,1.000000,0.000219,0.000538,-0.000075,0.025113,0.061694,-0.008580,0.999999,-0.000150,-0.001077,0.000150,1.000000,0.000438,0.001077,-0.000438,0.999999
08652,5.224888,-1.072462,8.286028,-0.025299,0.017941,0.041597,0.007252,-0.000748,-0.001662,0.826642,-0.503824,-1.546541,0.052248,-0.010728,0.082860,1.000000,0.000036,-0.000004,-0.000008,1.000000,0.000223,0.000543,-0.000064,0.025525,0.062264,-0.007354,0.999999,-0.000128,-0.001087,0.000129,1.000000,0.000445,0.001087,-0.000446,0.999999
08653,5.248316,-1.062484,8.237586,0.020859,0.021407,0.012312,0.006340,-0.000530,-0.005510,0.817306,-0.505509,-1.545468,0.052483,-0.010629,0.082376,1.000000,0.000032,-0.000003,-0.000028,1.000000,0.000230,0.000546,-0.000076,0.026393,0.062539,-0.008681,0.999999,-0.000152,-0.001092,0.000152,1.000000,0.000461,0.001091,-0.000461,0.999999
08654,5.242680,-1.096471,8.203656,0.031704,-0.016700,-0.015411,0.004646,-0.001194,-0.001635,0.814613,-0.504851,-1.543484,0.052426,-0.010967,0.082037,1.000000,0.000023,-0.000006,-0.000008,1.000000,0.000220,0.000550,-0.000086,0.025248,0.062991,-0.009849,0.999999,-0.000172,-0.001099,0.000172,1.000000,0.000441,0.001099,-0.000441,0.999999
08655,5.258973,-1.065384,8.204734,0.046895,0.014433,-0.009264,0.004479,-0.005883,-0.003271,0.813950,-0.505189,-1.544722,0.052587,-0.010657,0.082049,1.000000,0.000022,-0.000029,-0.000016,1.000000,0.000212,0.000527,-0.000090,0.024323,0.060393,-0.010330,0.999999,-0.000180,-0.001054,0.000181,1.000000,0.000425,0.001054,-0.000425,0.999999
08656,5.235876,-1.074122,8.253131,0.001022,0.012287,0.020021,0.006178,0.000372,0.001467,0.811402,-0.502997,-1.544342,0.052359,-0.010743,0.082531,1.000000,0.000031,0.000002,0.000007,1.000000,0.000202,0.000536,-0.000067,0.023095,0.061373,-0.007703,0.999999,-0.000134,-0.001071,0.000135,1.000000,0.000403,0.001071,-0.000403,0.999999
08657,5.233032,-1.090816,8.236226,0.006506,-0.006438,0.006164,0.006340,-0.000531,-0.005509,0.823219,-0.507377,-1.545233,0.052330,-0.010912,0.082362,1.000000,0.000032,-0.000003,-0.000028,1.000000,0.000209,0.000538,-0.000079,0.023962,0.061648,-0.009029,0.999999,-0.000158,-0.001076,0.000158,1.000000,0.000418,0.001076,-0.000418,0.999999
08658,5.246161,-1.076863,8.220540,0.026996,0.005299,-0.001553,0.004300,0.001108,-0.003902,0.814490,-0.500736,-1.544205,0.052462,-0.010771,0.082205,1.000000,0.000022,0.000006,-0.000020,1.000000,0.000205,0.000549,-0.000089,0.023489,0.062887,-0.010209,0.999999,-0.000178,-0.001098,0.000179,1.000000,0.000410,0.001098,-0.000410,0.999999
08659,5.235971,-1.072128,8.253330,0.001517,0.014258,0.020019,0.007306,-0.001051,-0.003987,0.809901,-0.509942,-1.536926,0.052359,-0.010725,0.082533,1.000000,0.000037,-0.000005,-0.000020,1.000000,0.000212,0.000550,-0.000092,0.024344,0.062981,-0.010475,0.999999,-0.000183,-0.001099,0.000183,1.000000,0.000425,0.001099,-0.000425,0.999999
08660,5.256476,-1.082336,8.261095,0.014050,0.005029,0.038580,0.007252,-0.000750,-0.001661,0.815283,-0.502545,-1.542258,0.052564,-0.010827,0.082611,1.000000,0.000036,-0.000004,-0.000008,1.000000,0.000215,0.000550,-0.000074,0.024661,0.063081,-0.008426,0.999999,-0.000147,-0.001101,0.000148,1.000000,0.000430,0.001101,-0.000431,0.999999
08661,5.236117,-1.070757,8.253415,0.001799,0.015549,0.020017,0.006232,0.000070,-0.000858,0.812779,-0.504221,-1.545612,0.052361,-0.010710,0.082534,1.000000,0.000031,0.000000,-0.000004,1.000000,0.000210,0.000559,-0.000066,0.024094,0.064045,-0.007589,0.999999,-0.000132,-0.001118,0.000133,1.000000,0.000421,0.001118,-0.000421,0.999999
08662,5.246338,-1.074255,8.220768,0.027557,0.007919,-0.001556,0.005266,0.000589,-0.002380,0.813620,-0.500006,-1.549234,0.052463,-0.010745,0.082207,1.000000,0.000026,0.000003,-0.000012,1.000000,0.000205,0.000566,-0.000070,0.023464,0.064842,-0.007981,0.999999,-0.000139,-0.001132,0.000140,1.000000,0.000410,0.001132,-0.000410,0.999999
08663,5.225896,-1.062635,8.213145,0.015305,0.018434,-0.020121,0.007873,0.001034,-0.002407,0.817642,-0.504495,-1.542795,0.052259,-0.010630,0.082131,1.000000,0.000039,0.000005,-0.000012,1.000000,0.000211,0.000578,-0.000065,0.024199,0.066238,-0.007447,0.999999,-0.000130,-0.001156,0.000130,1.000000,0.000422,0.001156,-0.000423,0.999999
08664,5.233212,-1.086232,8.236717,0.007507,-0.001810,0.006165,0.003680,-0.000677,-0.003155,0.810351,-0.501124,-1.545880,0.052332,-0.010865,0.082367,1.000000,0.000018,-0.000003,-0.000016,1.000000,0.000199,0.000578,-0.000083,0.022841,0.066291,-0.009473,0.999999,-0.000165,-0.001157,0.000166,1.000000,0.000399,0.001157,-0.000399,0.999999
08665,5.272425,-1.048648,8.262708,0.029814,0.038867,0.044699,0.004975,0.002589,-0.006973,0.815114,-0.509171,-1.546568,0.052725,-0.010490,0.082626,1.000000,0.000025,0.000013,-0.000035,1.000000,0.000206,0.000595,-0.000106,0.023613,0.068228,-0.012117,0.999999,-0.000211,-0.001191,0.000212,1.000000,0.000412,0.001191,-0.000412,0.999999
08666,5.209790,-1.094145,8.285434,-0.038232,-0.003261,0.035460,0.006232,0.000070,-0.000857,0.818906,-0.503842,-1.549378,0.052098,-0.010944,0.082854,1.000000,0.000031,0.000000,-0.000004,1.000000,0.000201,0.000599,-0.000088,0.023047,0.068626,-0.010047,0.999999,-0.000175,-0.001198,0.000176,1.000000,0.000402,0.001198,-0.000402,0.999999
08667,5.236073,-1.067041,8.253925,0.002609,0.019566,0.020009,0.004701,-0.001498,-0.003958,0.811646,-0.508065,-1.541067,0.052360,-0.010673,0.082539,1.000000,0.000024,-0.000007,-0.000020,1.000000,0.000197,0.000597,-0.000097,0.022611,0.068468,-0.011067,0.999999,-0.000193,-0.001195,0.000194,1.000000,0.000395,0.001195,-0.000395,0.999999
08668,5.236144,-1.066464,8.253954,0.002729,0.020208,0.020008,0.005266,0.000588,-0.002379,0.813476,-0.503677,-1.540308,0.052362,-0.010667,0.082539,1.000000,0.000026,0.000003,-0.000012,1.000000,0.000193,0.000605,-0.000090,0.022167,0.069323,-0.010253,0.999999,-0.000179,-0.001210,0.000179,1.000000,0.000387,0.001210,-0.000387,0.999999
08669,5.230484,-1.100545,8.220070,0.013518,-0.017925,-0.007678,0.004701,-0.001498,-0.003958,0.820126,-0.514254,-1.542615,0.052304,-0.011008,0.082201,1.000000,0.000024,-0.000007,-0.000020,1.000000,0.000190,0.000604,-0.000098,0.021732,0.069164,-0.011274,0.999999,-0.000197,-0.001207,0.000197,1.000000,0.000379,0.001207,-0.000380,0.999999
08670,5.220350,-1.095838,8.252817,-0.011950,-0.009030,0.013893,0.005321,0.000286,-0.004704,0.805123,-0.492479,-1.546742,0.052203,-0.010962,0.082528,1.000000,0.000027,0.000001,-0.000024,1.000000,0.000195,0.000611,-0.000091,0.022367,0.070002,-0.010387,0.999999,-0.000181,-0.001222,0.000182,1.000000,0.000390,0.001222,-0.000391,0.999999
08671,5.233538,-1.081829,8.237089,0.008555,0.002711,0.006164,0.008273,-0.001572,-0.002462,0.821289,-0.502558,-1.540798,0.052335,-0.010822,0.082371,1.000000,0.000041,-0.000008,-0.000012,1.000000,0.000203,0.000610,-0.000084,0.023209,0.069913,-0.009592,0.999999,-0.000167,-0.001220,0.000168,1.000000,0.000405,0.001220,-0.000405,0.999999
08672,5.233688,-1.081190,8.237078,0.008649,0.003462,0.006163,0.005612,-0.001714,-0.000110,0.808882,-0.504915,-1.547669,0.052336,-0.010814,0.082371,1.000000,0.000028,-0.000009,-0.000001,1.000000,0.000188,0.000606,-0.000102,0.021511,0.069476,-0.011665,0.999999,-0.000204,-0.001213,0.000204,1.000000,0.000375,0.001213,-0.000376,0.999999
08673,5.246786,-1.067308,8.221387,0.029154,0.015200,-0.001569,0.004975,0.002586,-0.006972,0.812730,-0.509153,-1.550112,0.052469,-0.010677,0.082213,1.000000,0.000025,0.000013,-0.000035,1.000000,0.000195,0.000623,-0.000125,0.022283,0.071411,-0.014309,0.999999,-0.000250,-0.001246,0.000250,1.000000,0.000389,0.001246,-0.000389,0.999999
08674,5.233673,-1.079776,8.237273,0.008845,0.004770,0.006163,0.006341,-0.000536,-0.005506,0.822483,-0.499970,-1.547728,0.052336,-0.010802,0.082373,1.000000,0.000032,-0.000003,-0.000028,1.000000,0.000203,0.000618,-0.000113,0.023221,0.070852,-0.012910,0.999999,-0.000225,-0.001237,0.000226,1.000000,0.000405,0.001237,-0.000406,0.999999
08675,5.233846,-1.079010,8.237263,0.009015,0.005430,0.006162,0.005721,-0.002320,-0.004759,0.823579,-0.505455,-1.547635,0.052337,-0.010794,0.082373,1.000000,0.000029,-0.000012,-0.000024,1.000000,0.000205,0.000612,-0.000122,0.023490,0.070165,-0.013951,0.999999,-0.000243,-0.001225,0.000244,1.000000,0.000410,0.001225,-0.000410,0.999999
08676,5.216474,-1.049969,8.246459,-0.008502,0.035364,0.001425,0.006341,-0.000537,-0.005505,0.819366,-0.511427,-1.546446,0.052164,-0.010504,0.082464,1.000000,0.000032,-0.000003,-0.000028,1.000000,0.000211,0.000617,-0.000152,0.024190,0.070686,-0.017434,0.999999,-0.000304,-0.001234,0.000305,1.000000,0.000422,0.001234,-0.000423,0.999999
08677,5.254466,-1.088498,8.245062,0.021821,-0.003062,0.024731,0.005267,0.000587,-0.002378,0.818770,-0.506591,-1.543211,0.052545,-0.010888,0.082450,1.000000,0.000026,0.000003,-0.000012,1.000000,0.000206,0.000627,-0.000154,0.023635,0.071829,-0.017655,0.999999,-0.000308,-0.001254,0.000309,1.000000,0.000413,0.001254,-0.000413,0.999999
08678,5.244250,-1.083795,8.277856,-0.003638,0.005865,0.046300,0.006287,-0.000234,-0.003180,0.815953,-0.502308,-1.552935,0.052442,-0.010841,0.082778,1.000000,0.000031,-0.000001,-0.000016,1.000000,0.000211,0.000633,-0.000140,0.024170,0.072517,-0.016072,0.999999,-0.000281,-0.001266,0.000281,1.000000,0.000422,0.001266,-0.000422,0.999999
08679,5.213707,-1.065320,8.229707,-0.002676,0.017870,-0.012412,0.005321,0.000283,-0.004702,0.814444,-0.510687,-1.547336,0.052137,-0.010657,0.082297,1.000000,0.000027,0.000001,-0.000024,1.000000,0.000212,0.000640,-0.000152,0.024332,0.073314,-0.017373,0.999999,-0.000303,-0.001280,0.000304,1.000000,0.000425,0.001279,-0.000425,0.999999
08680,5.237180,-1.058319,8.254345,0.004525,0.028098,0.019988,0.006980,-0.004836,0.001359,0.823648,-0.504765,-1.543624,0.052370,-0.010586,0.082544,1.000000,0.000035,-0.000024,0.000007,1.000000,0.000203,0.000621,-0.000118,0.023277,0.071145,-0.013478,0.999999,-0.000235,-0.001242,0.000236,1.000000,0.000406,0.001242,-0.000407,0.999999
08681,5.234452,-1.074914,8.237414,0.010000,0.009350,0.006158,0.009513,0.001993,-0.003953,0.823664,-0.501896,-1.539987,0.052345,-0.010754,0.082373,1.000000,0.000048,0.000010,-0.000020,1.000000,0.000221,0.000637,-0.000116,0.025314,0.072968,-0.013247,0.999999,-0.000231,-0.001274,0.000232,1.000000,0.000442,0.001273,-0.000442,0.999999
08682,5.237225,-1.056795,8.254512,0.004962,0.029411,0.019984,0.004300,0.001103,-0.003900,0.813382,-0.503695,-1.538327,0.052373,-0.010571,0.082545,1.000000,0.000022,0.000006,-0.000019,1.000000,0.000217,0.000653,-0.000145,0.024821,0.074848,-0.016592,0.999999,-0.000290,-0.001306,0.000290,1.000000,0.000433,0.001306,-0.000434,0.999999
08683,5.237335,-1.056155,8.254524,0.005132,0.030072,0.019982,0.006688,-0.002840,-0.003234,0.817573,-0.505185,-1.546806,0.052372,-0.010565,0.082546,1.000000,0.000033,-0.000014,-0.000016,1.000000,0.000219,0.000646,-0.000145,0.025077,0.073980,-0.016572,0.999999,-0.000289,-0.001291,0.000290,1.000000,0.000438,0.001291,-0.000438,0.999999
08684,5.224476,-1.068751,8.270243,-0.015060,0.019651,0.027724,0.005667,-0.002019,-0.002432,0.814731,-0.501832,-1.545045,0.052244,-0.010690,0.082703,1.000000,0.000028,-0.000010,-0.000012,1.000000,0.000216,0.000641,-0.000143,0.024699,0.073482,-0.016416,0.999999,-0.000287,-0.001282,0.000287,1.000000,0.000431,0.001282,-0.000431,0.999999
08685,5.252438,-1.100525,8.228294,0.028477,-0.017275,0.010906,0.004701,-0.001502,-0.003955,0.814673,-0.505551,-1.554108,0.052524,-0.011008,0.082283,1.000000,0.000024,-0.000008,-0.000020,1.000000,0.000212,0.000640,-0.000152,0.024262,0.073321,-0.017434,0.999999,-0.000304,-0.001280,0.000305,1.000000,0.000423,0.001280,-0.000424,0.999999
08686,5.237961,-1.054243,8.254371,0.005525,0.032074,0.019975,0.006688,-0.002840,-0.003234,0.819545,-0.508085,-1.549476,0.052378,-0.010546,0.082544,1.000000,0.000033,-0.000014,-0.000016,1.000000,0.000213,0.000628,-0.000151,0.024340,0.071926,-0.017310,0.999999,-0.000302,-0.001255,0.000303,1.000000,0.000425,0.001255,-0.000425,0.999999
08687,5.258565,-1.064574,8.262074,0.018121,0.022906,0.038548,0.004647,-0.001198,-0.001630,0.816616,-0.502270,-1.541169,0.052585,-0.010648,0.082621,1.000000,0.000023,-0.000006,-0.000008,1.000000,0.000202,0.000629,-0.000151,0.023187,0.072111,-0.017247,0.999999,-0.000301,-0.001259,0.000302,1.000000,0.000405,0.001258,-0.000405,0.999999
08688,5.201927,-1.072856,8.245402,-0.021603,0.012728,-0.004676,0.005613,-0.001715,-0.000107,0.820450,-0.510445,-1.543588,0.052019,-0.010731,0.082454,1.000000,0.000028,-0.000009,-0.000001,1.000000,0.000193,0.000629,-0.000140,0.022093,0.072067,-0.016061,0.999999,-0.000280,-0.001258,0.000281,1.000000,0.000386,0.001258,-0.000386,0.999999
08689,5.222386,-1.083268,8.253189,-0.009007,0.003561,0.013900,0.004300,0.001102,-0.003900,0.825167,-0.512232,-1.545575,0.052224,-0.010835,0.082531,1.000000,0.000022,0.000006,-0.000019,1.000000,0.000188,0.000640,-0.000151,0.021550,0.073389,-0.017340,0.999999,-0.000303,-0.001281,0.000303,1.000000,0.000376,0.001281,-0.000377,0.999999
08690,5.242965,-1.093597,8.260911,0.003656,-0.005701,0.032476,0.005102,-0.004107,-0.004008,0.820065,-0.499390,-1.548470,0.052428,-0.010939,0.082610,1.000000,0.000026,-0.000021,-0.000020,1.000000,0.000190,0.000629,-0.000139,0.021786,0.072127,-0.015923,0.999999,-0.000278,-0.001259,0.000278,1.000000,0.000380,0.001259,-0.000381,0.999999
08691,5.222726,-1.081908,8.253152,-0.008602,0.004785,0.013900,0.006961,0.001242,-0.006250,0.813397,-0.501294,-1.552084,0.052227,-0.010824,0.082531,1.000000,0.000035,0.000006,-0.000031,1.000000,0.000203,0.000640,-0.000153,0.023250,0.073352,-0.017527,0.999999,-0.000306,-0.001280,0.000306,1.000000,0.000406,0.001280,-0.000406,0.999999
08692,5.238751,-1.050383,8.254362,0.006535,0.036002,0.019961,0.008328,-0.001880,-0.004781,0.816128,-0.507533,-1.555501,0.052386,-0.010509,0.082544,1.000000,0.000042,-0.000009,-0.000024,1.000000,0.000213,0.000633,-0.000172,0.024389,0.072515,-0.019738,0.999999,-0.000344,-0.001266,0.000345,1.000000,0.000426,0.001265,-0.000426,0.999999
08693,5.240622,-1.108436,8.243988,0.009396,-0.023065,0.018664,0.007655,-0.003359,-0.001709,0.822330,-0.503984,-1.550690,0.052405,-0.011088,0.082440,1.000000,0.000038,-0.000017,-0.000009,1.000000,0.000215,0.000624,-0.000163,0.024632,0.071466,-0.018657,0.999999,-0.000326,-0.001247,0.000326,1.000000,0.000430,0.001247,-0.000430,0.999999
08694,5.220585,-1.096779,8.236096,-0.002912,-0.012568,0.000087,0.006123,-0.004930,-0.004808,0.823527,-0.504856,-1.548926,0.052204,-0.010972,0.082362,1.000000,0.000031,-0.000025,-0.000024,1.000000,0.000218,0.000602,-0.000167,0.024922,0.069003,-0.019082,0.999999,-0.000333,-0.001204,0.000334,1.000000,0.000435,0.001204,-0.000435,0.999999
08695,5.257319,-1.076458,8.244824,0.024722,0.008757,0.024721,0.004082,-0.003287,-0.003205,0.819908,-0.509111,-1.538607,0.052572,-0.010767,0.082449,1.000000,0.000020,-0.000016,-0.000016,1.000000,0.000209,0.000592,-0.000173,0.023888,0.067884,-0.019817,0.999999,-0.000346,-0.001185,0.000346,1.000000,0.000417,0.001185,-0.000417,0.999999
08696,5.221250,-1.095430,8.235854,-0.002519,-0.011294,0.000089,0.010261,-0.002915,-0.001735,0.818296,-0.504545,-1.540628,0.052211,-0.010959,0.082359,1.000000,0.000051,-0.000015,-0.000009,1.000000,0.000224,0.000588,-0.000155,0.025682,0.067399,-0.017785,0.999999,-0.000310,-0.001176,0.000311,1.000000,0.000448,0.001176,-0.000449,0.999999
08697,5.227237,-1.059816,8.269648,-0.012945,0.028215,0.027706,0.005776,-0.002632,-0.007078,0.824790,-0.501600,-1.545436,0.052271,-0.010602,0.082697,1.000000,0.000029,-0.000013,-0.000035,1.000000,0.000233,0.000579,-0.000174,0.026666,0.066362,-0.019905,0.999999,-0.000347,-0.001158,0.000348,1.000000,0.000465,0.001158,-0.000466,0.999999
08698,5.240589,-1.045613,8.253801,0.007614,0.039937,0.019945,0.008382,-0.002188,-0.007104,0.819085,-0.500010,-1.541421,0.052405,-0.010461,0.082538,1.000000,0.000042,-0.000011,-0.000036,1.000000,0.000253,0.000575,-0.000200,0.028937,0.065882,-0.022928,0.999999,-0.000400,-0.001150,0.000401,1.000000,0.000505,0.001150,-0.000506,0.999999
08699,5.238174,-1.062111,8.236709,0.013081,0.021172,0.006136,0.006471,-0.007231,-0.002536,0.825291,-0.504084,-1.545315,0.052379,-0.010624,0.082369,1.000000,0.000032,-0.000036,-0.000013,1.000000,0.000251,0.000546,-0.000195,0.028702,0.062572,-0.022361,0.999999,-0.000390,-0.001092,0.000391,1.000000,0.000501,0.001092,-0.000501,0.999999
08700,5.222746,-1.092075,8.235351,-0.001733,-0.008641,0.000092,0.005103,-0.004110,-0.004005,0.814068,-0.500612,-1.538958,0.052226,-0.010924,0.082354,1.000000,0.000026,-0.000021,-0.000020,1.000000,0.000247,0.000535,-0.000221,0.028292,0.061258,-0.025357,0.999999,-0.000443,-0.001069,0.000443,1.000000,0.000494,0.001069,-0.000494,0.999999
08701,5.256553,-1.089063,8.227192,0.031202,-0.006739,0.010910,0.005722,-0.002328,-0.004753,0.818542,-0.512774,-1.539187,0.052564,-0.010894,0.082272,1.000000,0.000029,-0.000012,-0.000024,1.000000,0.000249,0.000528,-0.000230,0.028560,0.060567,-0.026395,0.999999,-0.000461,-0.001057,0.000461,1.000000,0.000498,0.001057,-0.000499,0.999999
08702,5.226372,-1.073278,8.251971,-0.006672,0.012053,0.013895,0.006525,-0.007538,-0.004859,0.816121,-0.508755,-1.542214,0.052260,-0.010737,0.082521,1.000000,0.000033,-0.000038,-0.000024,1.000000,0.000256,0.000497,-0.000227,0.029367,0.057000,-0.026034,0.999999,-0.000454,-0.000995,0.000455,1.000000,0.000513,0.000995,-0.000513,0.999999
08703,5.244537,-1.100886,8.242510,0.011221,-0.016529,0.018675,0.004484,-0.005894,-0.003256,0.811430,-0.505805,-1.543013,0.052443,-0.011012,0.082426,1.000000,0.000022,-0.000029,-0.000016,1.000000,0.000248,0.000475,-0.000231,0.028439,0.054396,-0.026506,0.999999,-0.000463,-0.000949,0.000463,1.000000,0.000496,0.000949,-0.000497,0.999999
08704,5.240422,-1.058736,8.235714,0.013964,0.024384,0.006128,0.005722,-0.002329,-0.004753,0.821116,-0.502798,-1.560666,0.052403,-0.010591,0.082357,1.000000,0.000029,-0.000012,-0.000024,1.000000,0.000253,0.000467,-0.000226,0.028968,0.053479,-0.025898,0.999999,-0.000452,-0.000933,0.000452,1.000000,0.000506,0.000933,-0.000506,0.999999
08705,5.221886,-1.105939,8.217634,0.004385,-0.024876,-0.013705,0.003842,-0.001603,-0.010121,0.821817,-0.508363,-1.543925,0.052218,-0.011064,0.082177,1.000000,0.000019,-0.000008,-0.000051,1.000000,0.000262,0.000461,-0.000263,0.029977,0.052799,-0.030136,0.999999,-0.000526,-0.000922,0.000526,1.000000,0.000523,0.000921,-0.000524,0.999999
08706,5.248433,-1.081234,8.259066,0.006390,0.004852,0.032475,0.009078,-0.006789,-0.002560,0.817627,-0.508709,-1.538652,0.052481,-0.010817,0.082592,1.000000,0.000045,-0.000034,-0.000013,1.000000,0.000270,0.000434,-0.000254,0.030973,0.049684,-0.029079,0.999999,-0.000508,-0.000867,0.000508,1.000000,0.000541,0.000867,-0.000541,0.999999
08707,5.215345,-1.082777,8.266975,-0.026206,0.004268,0.021660,0.004755,-0.001813,-0.006275,0.823085,-0.500468,-1.549599,0.052152,-0.010831,0.082670,1.000000,0.000024,-0.000009,-0.000031,1.000000,0.000273,0.000429,-0.000272,0.031253,0.049173,-0.031177,0.999999,-0.000544,-0.000858,0.000545,1.000000,0.000545,0.000858,-0.000546,0.999999
08708,5.249066,-1.079709,8.258863,0.006764,0.006162,0.032474,0.005722,-0.002330,-0.004752,0.815337,-0.507093,-1.543259,0.052489,-0.010801,0.082589,1.000000,0.000029,-0.000012,-0.000024,1.000000,0.000276,0.000425,-0.000288,0.031593,0.048675,-0.032957,0.999999,-0.000575,-0.000850,0.000576,1.000000,0.000551,0.000849,-0.000552,0.999999
08709,5.259464,-1.083073,8.226122,0.032560,-0.001561,0.010908,0.007307,-0.001063,-0.003977,0.821331,-0.500896,-1.541322,0.052594,-0.010835,0.082261,1.000000,0.000037,-0.000005,-0.000020,1.000000,0.000283,0.000425,-0.000290,0.032446,0.048760,-0.033218,0.999999,-0.000580,-0.000851,0.000580,1.000000,0.000566,0.000851,-0.000567,0.999999
08710,5.231903,-1.049840,8.267970,-0.010598,0.036715,0.027681,0.006743,-0.003153,-0.005552,0.828537,-0.507569,-1.543597,0.052317,-0.010503,0.082680,1.000000,0.000034,-0.000016,-0.000028,1.000000,0.000292,0.000416,-0.000305,0.033487,0.047653,-0.034940,0.999999,-0.000610,-0.000832,0.000610,1.000000,0.000584,0.000831,-0.000585,0.999999
08711,5.247017,-1.094686,8.241757,0.012584,-0.011303,0.018681,0.006124,-0.004936,-0.004803,0.822540,-0.507445,-1.541866,0.052468,-0.010951,0.082419,1.000000,0.000031,-0.000025,-0.000024,1.000000,0.000296,0.000397,-0.000312,0.033861,0.045477,-0.035714,0.999999,-0.000623,-0.000794,0.000624,1.000000,0.000591,0.000793,-0.000591,1.000000
08712,5.250228,-1.076460,8.258548,0.007569,0.008742,0.032471,0.010262,-0.002918,-0.001732,0.826002,-0.499582,-1.546443,0.052501,-0.010769,0.082586,1.000000,0.000051,-0.000015,-0.000009,1.000000,0.000312,0.000395,-0.000300,0.035710,0.045288,-0.034378,1.000000,-0.000600,-0.000790,0.000601,1.000000,0.000623,0.000790,-0.000624,0.999999
08713,5.227268,-1.082165,8.233790,0.000597,-0.000235,0.000095,0.005104,-0.004114,-0.004002,0.819566,-0.500322,-1.552714,0.052271,-0.010825,0.082339,1.000000,0.000026,-0.000021,-0.000020,1.000000,0.000309,0.000381,-0.000307,0.035379,0.043639,-0.035131,1.000000,-0.000613,-0.000762,0.000614,1.000000,0.000617,0.000761,-0.000618,1.000000
08714,5.250775,-1.074845,8.258411,0.007930,0.010125,0.032470,0.008946,-0.000105,-0.005525,0.825803,-0.511711,-1.549331,0.052507,-0.010754,0.082584,1.000000,0.000045,-0.000001,-0.000028,1.000000,0.000325,0.000386,-0.000337,0.037185,0.044266,-0.038600,0.999999,-0.000674,-0.000773,0.000674,1.000000,0.000649,0.000772,-0.000650,0.999999
08715,5.251039,-1.071521,8.185129,0.046914,0.003791,-0.029248,0.005399,-0.006105,0.000593,0.825002,-0.495937,-1.545314,0.052508,-0.010717,0.081853,1.000000,0.000027,-0.000031,0.000003,1.000000,0.000310,0.000365,-0.000322,0.035527,0.041830,-0.036930,1.000000,-0.000645,-0.000730,0.000645,1.000000,0.000620,0.000730,-0.000621,1.000000
08716,5.241064,-1.066785,8.217781,0.021528,0.012851,-0.007684,0.008839,0.000509,-0.000879,0.816059,-0.506431,-1.543490,0.052411,-0.010672,0.082177,1.000000,0.000044,0.000003,-0.000004,1.000000,0.000316,0.000379,-0.000325,0.036221,0.043427,-0.037285,1.000000,-0.000651,-0.000758,0.000651,1.000000,0.000632,0.000758,-0.000633,1.000000
08717,5.264389,-1.059667,8.242488,0.028844,0.023157,0.024687,0.004648,-0.001202,-0.001627,0.817170,-0.507957,-1.549829,0.052643,-0.010599,0.082425,1.000000,0.000023,-0.000006,-0.000008,1.000000,0.000306,0.000380,-0.000325,0.035067,0.043611,-0.037221,0.999999,-0.000650,-0.000761,0.000650,1.000000,0.000612,0.000761,-0.000613,1.000000
08718,5.228242,-1.078810,8.233612,0.001501,0.003099,0.000095,0.006689,-0.002848,-0.003227,0.824227,-0.508797,-1.544084,0.052281,-0.010792,0.082336,1.000000,0.000033,-0.000014,-0.000016,1.000000,0.000310,0.000371,-0.000316,0.035482,0.042560,-0.036143,1.000000,-0.000631,-0.000743,0.000631,1.000000,0.000619,0.000742,-0.000620,1.000000
08719,5.282355,-1.086750,8.233248,0.046871,-0.004790,0.029489,0.004648,-0.001202,-0.001626,0.808918,-0.507613,-1.543149,0.052823,-0.010870,0.082333,1.000000,0.000023,-0.000006,-0.000008,1.000000,0.000300,0.000373,-0.000315,0.034328,0.042744,-0.036078,1.000000,-0.000630,-0.000746,0.000630,1.000000,0.000599,0.000746,-0.000600,1.000000
08720,5.228470,-1.077767,8.233604,0.001830,0.004369,0.000094,0.006180,0.000373,0.001470,0.823707,-0.502860,-1.544175,0.052285,-0.010780,0.082336,1.000000,0.000031,0.000002,0.000007,1.000000,0.000291,0.000384,-0.000287,0.033330,0.043994,-0.032839,1.000000,-0.000573,-0.000768,0.000574,1.000000,0.000582,0.000768,-0.000582,1.000000
08721,5.228240,-1.077074,8.233840,0.002000,0.005029,0.000094,0.006206,0.006134,-0.008468,0.825024,-0.502851,-1.536651,0.052284,-0.010776,0.082336,1.000000,0.000031,0.000031,-0.000042,1.000000,0.000308,0.000417,-0.000315,0.035295,0.047833,-0.036049,0.999999,-0.000629,-0.000835,0.000630,1.000000,0.000616,0.000834,-0.000617,0.999999
08722,5.271965,-1.080655,8.266343,0.021844,0.005543,0.051052,0.007039,-0.005147,-0.000954,0.814743,-0.506975,-1.549184,0.052717,-0.010810,0.082664,1.000000,0.000035,-0.000026,-0.000005,1.000000,0.000306,0.000404,-0.000321,0.034999,0.046355,-0.036820,0.999999,-0.000643,-0.000809,0.000643,1.000000,0.000611,0.000809,-0.000611,0.999999
08723,5.218398,-1.071450,8.266524,-0.023188,0.014750,0.021657,0.006690,-0.002850,-0.003225,0.816692,-0.498800,-1.543119,0.052183,-0.010718,0.082666,1.000000,0.000033,-0.000014,-0.000016,1.000000,0.000308,0.000397,-0.000321,0.035253,0.045483,-0.036796,0.999999,-0.000642,-0.000794,0.000643,1.000000,0.000615,0.000793,-0.000616,0.999999
08724,5.238994,-1.081627,8.274267,-0.010626,0.005638,0.040247,0.006287,-0.000244,-0.003175,0.813558,-0.510500,-1.541811,0.052390,-0.010820,0.082742,1.000000,0.000031,-0.000001,-0.000016,1.000000,0.000308,0.000400,-0.000326,0.035301,0.045851,-0.037350,0.999999,-0.000652,-0.000800,0.000652,1.000000,0.000616,0.000800,-0.000617,0.999999
08725,5.259670,-1.089227,8.208748,0.040780,-0.010531,-0.002881,0.007093,-0.005456,-0.003275,0.821514,-0.506757,-1.553974,0.052594,-0.010896,0.082089,1.000000,0.000035,-0.000027,-0.000016,1.000000,0.000311,0.000379,-0.000324,0.035662,0.043495,-0.037063,1.000000,-0.000647,-0.000759,0.000647,1.000000,0.000622,0.000759,-0.000623,1.000000
08726,5.232235,-1.056117,8.250470,-0.002410,0.027751,0.013865,0.006636,-0.002542,-0.000902,0.823965,-0.501878,-1.541837,0.052321,-0.010564,0.082505,1.000000,0.000033,-0.000013,-0.000005,1.000000,0.000309,0.000374,-0.000302,0.035409,0.042815,-0.034645,1.000000,-0.000605,-0.000747,0.000605,1.000000,0.000618,0.000747,-0.000618,1.000000
08727,5.250007,-1.083688,8.241306,0.015475,-0.000830,0.018683,0.008275,-0.001584,-0.002451,0.819636,-0.502536,-1.548248,0.052499,-0.010841,0.082413,1.000000,0.000041,-0.000008,-0.000012,1.000000,0.000316,0.000373,-0.000295,0.036249,0.042720,-0.033845,1.000000,-0.000591,-0.000746,0.000591,1.000000,0.000633,0.000745,-0.000633,1.000000
08728,5.237286,-1.093703,8.183797,0.034140,-0.018246,-0.035244,0.006421,-0.006930,-0.000202,0.817400,-0.503376,-1.548362,0.052370,-0.010940,0.081839,1.000000,0.000032,-0.000035,-0.000001,1.000000,0.000307,0.000348,-0.000296,0.035208,0.039942,-0.033936,1.000000,-0.000592,-0.000697,0.000593,1.000000,0.000615,0.000697,-0.000615,1.000000
08729,5.230294,-1.071570,8.233254,0.003413,0.010290,0.000090,0.003734,-0.000998,-0.005471,0.817112,-0.497878,-1.545618,0.052302,-0.010719,0.082333,1.000000,0.000019,-0.000005,-0.000027,1.000000,0.000304,0.000349,-0.000314,0.034783,0.039954,-0.036011,1.000000,-0.000629,-0.000697,0.000629,1.000000,0.000607,0.000697,-0.000608,1.000000
08730,5.263928,-1.068513,8.225171,0.036327,0.012237,0.010888,0.008275,-0.001584,-0.002451,0.822534,-0.498198,-1.545061,0.052638,-0.010689,0.082252,1.000000,0.000041,-0.000008,-0.000012,1.000000,0.000309,0.000346,-0.000319,0.035396,0.039697,-0.036538,1.000000,-0.000638,-0.000693,0.000638,1.000000,0.000618,0.000692,-0.000618,1.000000
08731,5.227742,-1.087632,8.216354,0.009004,-0.007811,-0.013679,0.005616,-0.001719,-0.000102,0.814690,-0.504029,-1.542691,0.052277,-0.010879,0.082164,1.000000,0.000028,-0.000009,-0.000001,1.000000,0.000299,0.000346,-0.000309,0.034229,0.039701,-0.035413,1.000000,-0.000618,-0.000693,0.000618,1.000000,0.000597,0.000693,-0.000598,1.000000
08732,5.230652,-1.069717,8.233267,0.003901,0.012328,0.000087,0.005266,0.000578,-0.002375,0.818121,-0.500878,-1.545387,0.052307,-0.010700,0.082332,1.000000,0.000026,0.000003,-0.000012,1.000000,0.000293,0.000357,-0.000323,0.033554,0.040868,-0.037055,1.000000,-0.000647,-0.000713,0.000647,1.000000,0.000586,0.000713,-0.000586,1.000000
08733,5.217526,-1.082342,8.249233,-0.016266,0.001957,0.007884,0.006851,0.001845,-0.001601,0.819204,-0.499084,-1.548478,0.052176,-0.010827,0.082491,1.000000,0.000034,0.000009,-0.000008,1.000000,0.000293,0.000373,-0.000319,0.033582,0.042784,-0.036498,1.000000,-0.000637,-0.000747,0.000637,1.000000,0.000586,0.000746,-0.000587,1.000000
08734,5.251028,-1.079428,8.241215,0.016662,0.003907,0.018680,0.006583,-0.002234,0.001422,0.812169,-0.505413,-1.547848,0.052509,-0.010797,0.082412,1.000000,0.000033,-0.000011,0.000007,1.000000,0.000281,0.000371,-0.000314,0.032170,0.042531,-0.035948,1.000000,-0.000627,-0.000742,0.000628,1.000000,0.000561,0.000742,-0.000562,1.000000
08735,5.240969,-1.072207,8.200690,0.030010,0.005910,-0.021478,0.005669,-0.002029,-0.002424,0.818922,-0.503066,-1.551235,0.052409,-0.010725,0.082007,1.000000,0.000028,-0.000010,-0.000012,1.000000,0.000277,0.000368,-0.000313,0.031719,0.042185,-0.035903,1.000000,-0.000627,-0.000736,0.000627,1.000000,0.000554,0.000736,-0.000554,1.000000
08736,5.220743,-1.063313,8.266094,-0.021100,0.023452,0.021645,0.005616,-0.001720,-0.000101,0.822571,-0.503266,-1.541917,0.052207,-0.010635,0.082661,1.000000,0.000028,-0.000009,-0.000001,1.000000,0.000266,0.000365,-0.000300,0.030495,0.041864,-0.034374,1.000000,-0.000600,-0.000731,0.000600,1.000000,0.000532,0.000730,-0.000533,1.000000
08737,5.251501,-1.077726,8.241136,0.017117,0.005898,0.018679,0.006340,-0.000557,-0.005495,0.816421,-0.507157,-1.543148,0.052514,-0.010781,0.082411,1.000000,0.000032,-0.000003,-0.000027,1.000000,0.000274,0.000368,-0.000312,0.031358,0.042125,-0.035693,1.000000,-0.000623,-0.000735,0.000623,1.000000,0.000547,0.000735,-0.000548,1.000000
08738,5.248758,-1.094324,8.224298,0.022585,-0.012933,0.004919,0.006340,-0.000557,-0.005495,0.824018,-0.505125,-1.537803,0.052487,-0.010947,0.082243,1.000000,0.000032,-0.000003,-0.000027,1.000000,0.000283,0.000371,-0.000325,0.032374,0.042522,-0.037279,1.000000,-0.000651,-0.000742,0.000651,1.000000,0.000565,0.000742,-0.000566,1.000000
08739,5.254573,-1.058693,8.258082,0.012208,0.026661,0.032435,0.007308,-0.001072,-0.003972,0.820110,-0.503258,-1.552203,0.052545,-0.010591,0.082581,1.000000,0.000037,-0.000005,-0.000020,1.000000,0.000290,0.000372,-0.000328,0.033224,0.042604,-0.037537,1.000000,-0.000655,-0.000744,0.000656,1.000000,0.000580,0.000743,-0.000580,1.000000
08740,5.234187,-1.047143,8.250375,-0.000024,0.037086,0.013835,0.005266,0.000576,-0.002374,0.826909,-0.504824,-1.546508,0.052342,-0.010474,0.082503,1.000000,0.000026,0.000003,-0.000012,1.000000,0.000286,0.000383,-0.000339,0.032723,0.043934,-0.038795,0.999999,-0.000677,-0.000767,0.000678,1.000000,0.000571,0.000766,-0.000572,1.000000
08741,5.248961,-1.092210,8.224449,0.023127,-0.010964,0.004920,0.007254,-0.000762,-0.001649,0.822398,-0.500668,-1.543014,0.052489,-0.010926,0.082244,1.000000,0.000036,-0.000004,-0.000008,1.000000,0.000287,0.000387,-0.000331,0.032857,0.044366,-0.037973,0.999999,-0.000663,-0.000774,0.000663,1.000000,0.000573,0.000774,-0.000574,1.000000
08742,5.239010,-1.087361,8.257099,-0.002256,-0.001856,0.026482,0.006073,-0.004636,-0.002471,0.814887,-0.503070,-1.549412,0.052388,-0.010877,0.082572,1.000000,0.000030,-0.000023,-0.000012,1.000000,0.000284,0.000374,-0.000346,0.032508,0.042863,-0.039626,0.999999,-0.000692,-0.000748,0.000692,1.000000,0.000567,0.000748,-0.000568,1.000000
08743,5.252233,-1.073545,8.241215,0.018252,0.009826,0.018673,0.004298,0.001090,-0.003897,0.815725,-0.509025,-1.547080,0.052523,-0.010738,0.082412,1.000000,0.000021,0.000005,-0.000019,1.000000,0.000279,0.000385,-0.000357,0.031963,0.044180,-0.040906,0.999999,-0.000714,-0.000771,0.000714,1.000000,0.000558,0.000771,-0.000558,1.000000
08744,5.234839,-1.044503,8.250296,0.000665,0.039717,0.013824,0.009700,-0.005018,-0.003295,0.821648,-0.499312,-1.544572,0.052346,-0.010450,0.082504,1.000000,0.000049,-0.000025,-0.000016,1.000000,0.000294,0.000364,-0.000339,0.033678,0.041776,-0.038845,1.000000,-0.000678,-0.000729,0.000678,1.000000,0.000588,0.000729,-0.000588,1.000000
08745,5.273223,-1.082856,8.248830,0.030979,0.001368,0.037272,0.007605,-0.003059,0.000625,0.817340,-0.504746,-1.549641,0.052731,-0.010832,0.082489,1.000000,0.000038,-0.000015,0.000003,1.000000,0.000290,0.000358,-0.000320,0.033203,0.041073,-0.036679,1.000000,-0.000640,-0.000717,0.000641,1.000000,0.000579,0.000716,-0.000580,1.000000
08746,5.232419,-1.060454,8.233343,0.006270,0.021581,0.000070,0.006904,0.001532,-0.003922,0.813279,-0.505381,-1.546862,0.052325,-0.010608,0.082333,1.000000,0.000035,0.000008,-0.000020,1.000000,0.000295,0.000372,-0.000334,0.033844,0.042606,-0.038244,1.000000,-0.000667,-0.000744,0.000668,1.000000,0.000591,0.000743,-0.000591,1.000000
08747,5.273207,-1.081458,8.249023,0.031314,0.002709,0.037270,0.007819,0.001328,-0.000077,0.820078,-0.507181,-1.549864,0.052733,-0.010818,0.082489,1.000000,0.000039,0.000007,-0.000000,1.000000,0.000296,0.000387,-0.000320,0.033860,0.044343,-0.036627,0.999999,-0.000639,-0.000774,0.000640,1.000000,0.000591,0.000774,-0.000591,1.000000
08748,5.196028,-1.079074,8.224754,-0.020932,0.002158,-0.024467,0.003010,-0.002164,-0.000073,0.819403,-0.502098,-1.551083,0.051959,-0.010792,0.082248,1.000000,0.000015,-0.000011,-0.000000,1.000000,0.000275,0.000383,-0.000310,0.031485,0.043885,-0.035525,1.000000,-0.000620,-0.000766,0.000620,1.000000,0.000550,0.000766,-0.000550,1.000000
08749,5.250071,-1.087104,8.224417,0.024450,-0.005695,0.004922,0.006287,-0.000250,-0.003171,0.820313,-0.497216,-1.544286,0.052500,-0.010874,0.082244,1.000000,0.000031,-0.000001,-0.000016,1.000000,0.000276,0.000388,-0.000312,0.031631,0.044494,-0.035763,1.000000,-0.000624,-0.000777,0.000625,1.000000,0.000552,0.000776,-0.000553,1.000000
08750,5.237130,-1.099744,8.240285,0.004275,-0.016013,0.012738,0.005616,-0.001721,-0.000099,0.816765,-0.507313,-1.548729,0.052371,-0.011000,0.082403,1.000000,0.000028,-0.000009,-0.000000,1.000000,0.000264,0.000388,-0.000317,0.030240,0.044459,-0.036342,0.999999,-0.000634,-0.000776,0.000635,1.000000,0.000528,0.000776,-0.000528,1.000000
08751,5.235531,-1.040250,8.250394,0.001812,0.044382,0.013804,0.007255,-0.000765,-0.001648,0.825821,-0.512793,-1.547986,0.052355,-0.010406,0.082504,1.000000,0.000036,-0.000004,-0.000008,1.000000,0.000265,0.000392,-0.000310,0.030374,0.044889,-0.035520,1.000000,-0.000620,-0.000783,0.000620,1.000000,0.000530,0.000783,-0.000531,1.000000
08752,5.237423,-1.098574,8.240255,0.004624,-0.014742,0.012740,0.003117,-0.002786,-0.004717,0.816825,-0.506221,-1.543331,0.052373,-0.010988,0.082403,1.000000,0.000016,-0.000014,-0.000024,1.000000,0.000259,0.000384,-0.000319,0.029642,0.043995,-0.036574,1.000000,-0.000638,-0.000768,0.000639,1.000000,0.000517,0.000768,-0.000518,1.000000
08753,5.237763,-1.097899,8.240128,0.004794,-0.014082,0.012741,0.009648,-0.004710,-0.000970,0.814368,-0.497690,-1.541264,0.052376,-0.010983,0.082402,1.000000,0.000048,-0.000024,-0.000005,1.000000,0.000267,0.000368,-0.000301,0.030573,0.042235,-0.034445,1.000000,-0.000601,-0.000737,0.000602,1.000000,0.000534,0.000737,-0.000534,1.000000
08754,5.217633,-1.086435,8.232244,-0.007491,-0.003659,-0.005863,0.003063,-0.002475,-0.002395,0.817785,-0.499544,-1.540276,0.052175,-0.010866,0.082323,1.000000,0.000015,-0.000012,-0.000012,1.000000,0.000252,0.000362,-0.000309,0.028810,0.041540,-0.035416,1.000000,-0.000618,-0.000725,0.000618,1.000000,0.000503,0.000725,-0.000503,1.000000
08755,5.254128,-1.066053,8.240980,0.020190,0.017737,0.018659,0.006340,-0.000563,-0.005493,0.812893,-0.506353,-1.542587,0.052541,-0.010665,0.082410,1.000000,0.000032,-0.000003,-0.000027,1.000000,0.000259,0.000365,-0.000321,0.029672,0.041798,-0.036734,1.000000,-0.000641,-0.000730,0.000642,1.000000,0.000518,0.000729,-0.000518,1.000000
08756,5.225451,-1.109077,8.255801,-0.015064,-0.023115,0.020566,0.008680,-0.004197,-0.002492,0.811688,-0.506381,-1.548000,0.052253,-0.011095,0.082559,1.000000,0.000043,-0.000021,-0.000012,1.000000,0.000268,0.000350,-0.000311,0.030660,0.040136,-0.035623,1.000000,-0.000622,-0.000700,0.000622,1.000000,0.000535,0.000700,-0.000536,1.000000
08757,5.257426,-1.047027,8.257753,0.015252,0.038536,0.032391,0.006287,-0.000252,-0.003171,0.814220,-0.510674,-1.545151,0.052574,-0.010474,0.082577,1.000000,0.000031,-0.000001,-0.000016,1.000000,0.000269,0.000355,-0.000313,0.030806,0.040743,-0.035861,1.000000,-0.000626,-0.000711,0.000626,1.000000,0.000538,0.000711,-0.000538,1.000000
08758,5.238794,-1.094353,8.239945,0.005557,-0.010820,0.012745,0.007308,-0.001078,-0.003968,0.811250,-0.507545,-1.545474,0.052387,-0.010948,0.082399,1.000000,0.000037,-0.000005,-0.000020,1.000000,0.000278,0.000353,-0.000298,0.031869,0.040493,-0.034124,1.000000,-0.000596,-0.000707,0.000596,1.000000,0.000556,0.000706,-0.000557,1.000000
08759,5.241784,-1.076109,8.256813,0.000463,0.009327,0.026478,0.008276,-0.001591,-0.002444,0.815886,-0.504344,-1.549165,0.052417,-0.010765,0.082568,1.000000,0.000041,-0.000008,-0.000012,1.000000,0.000286,0.000352,-0.000291,0.032706,0.040394,-0.033320,1.000000,-0.000582,-0.000705,0.000582,1.000000,0.000571,0.000705,-0.000571,1.000000
08760,5.252199,-1.079570,8.224051,0.026179,0.001497,0.004919,0.007659,-0.003373,-0.001693,0.815460,-0.510952,-1.540250,0.052521,-0.010799,0.082241,1.000000,0.000038,-0.000017,-0.000008,1.000000,0.000288,0.000340,-0.000272,0.033017,0.039020,-0.031124,1.000000,-0.000543,-0.000681,0.000544,1.000000,0.000576,0.000681,-0.000577,1.000000
08761,5.231857,-1.067980,8.216312,0.013909,0.011907,-0.013689,0.006904,0.001528,-0.003921,0.816188,-0.506975,-1.548272,0.052319,-0.010684,0.082162,1.000000,0.000035,0.000008,-0.000020,1.000000,0.000295,0.000354,-0.000276,0.033761,0.040582,-0.031646,1.000000,-0.000552,-0.000708,0.000553,1.000000,0.000589,0.000708,-0.000590,1.000000
08762,5.255160,-1.060594,8.241026,0.021238,0.022260,0.018647,0.006340,-0.000566,-0.005491,0.818520,-0.506651,-1.548309,0.052551,-0.010610,0.082410,1.000000,0.000032,-0.000003,-0.000027,1.000000,0.000305,0.000355,-0.000276,0.034896,0.040739,-0.031568,1.000000,-0.000551,-0.000711,0.000551,1.000000,0.000609,0.000711,-0.000609,1.000000
08763,5.218981,-1.079588,8.232291,-0.006105,0.002170,-0.005861,0.009244,-0.002106,-0.000920,0.819480,-0.499696,-1.549373,0.052189,-0.010800,0.082323,1.000000,0.000046,-0.000011,-0.000005,1.000000,0.000312,0.000353,-0.000259,0.035721,0.040462,-0.029703,1.000000,-0.000518,-0.000706,0.000519,1.000000,0.000623,0.000706,-0.000624,1.000000
08764,5.255423,-1.059036,8.241059,0.021565,0.023594,0.018643,0.006287,-0.000254,-0.003169,0.816240,-0.507317,-1.544693,0.052554,-0.010594,0.082410,1.000000,0.000031,-0.000001,-0.000016,1.000000,0.000312,0.000358,-0.000267,0.035790,0.040983,-0.030619,1.000000,-0.000534,-0.000715,0.000535,1.000000,0.000625,0.000715,-0.000625,1.000000
08765,5.239605,-1.088998,8.240139,0.006660,-0.006243,0.012748,0.006287,-0.000254,-0.003169,0.815971,-0.503668,-1.547470,0.052396,-0.010893,0.082401,1.000000,0.000031,-0.000001,-0.000016,1.000000,0.000314,0.000363,-0.000269,0.035936,0.041589,-0.030856,1.000000,-0.000539,-0.000726,0.000539,1.000000,0.000627,0.000726,-0.000628,1.000000
08766,5.239552,-1.088332,8.240260,0.006805,-0.005595,0.012748,0.005883,0.002352,-0.003123,0.819550,-0.501910,-1.544907,0.052396,-0.010887,0.082402,1.000000,0.000029,0.000012,-0.000016,1.000000,0.000315,0.000380,-0.000270,0.036048,0.043533,-0.030960,1.000000,-0.000540,-0.000760,0.000541,1.000000,0.000629,0.000759,-0.000630,1.000000
08767,5.275891,-1.067899,8.249074,0.034491,0.015820,0.037247,0.005670,-0.002035,-0.002417,0.815405,-0.506893,-1.550234,0.052758,-0.010682,0.082491,1.000000,0.000028,-0.000010,-0.000012,1.000000,0.000311,0.000377,-0.000270,0.035595,0.043183,-0.030911,1.000000,-0.000539,-0.000754,0.000540,1.000000,0.000621,0.000753,-0.000622,1.000000
08768,5.206076,-1.089349,8.248536,-0.025655,-0.005536,0.001974,0.007521,0.003307,-0.004671,0.820796,-0.499408,-1.545968,0.052062,-0.010898,0.082484,1.000000,0.000038,0.000017,-0.000023,1.000000,0.000322,0.000398,-0.000278,0.036936,0.045575,-0.031818,1.000000,-0.000555,-0.000795,0.000556,1.000000,0.000645,0.000795,-0.000645,0.999999
08769,5.229320,-1.082242,8.273246,-0.018304,0.004880,0.034306,0.002958,-0.001852,0.002250,0.817023,-0.506587,-1.548680,0.052293,-0.010823,0.082733,1.000000,0.000015,-0.000009,0.000011,1.000000,0.000295,0.000399,-0.000265,0.033763,0.045680,-0.030367,1.000000,-0.000530,-0.000797,0.000530,1.000000,0.000589,0.000797,-0.000590,1.000000
08770,5.275990,-1.066312,8.249216,0.034973,0.017814,0.037242,0.005670,-0.002036,-0.002417,0.818949,-0.504038,-1.546700,0.052759,-0.010666,0.082492,1.000000,0.000028,-0.000010,-0.000012,1.000000,0.000290,0.000395,-0.000271,0.033255,0.045279,-0.031019,1.000000,-0.000541,-0.000790,0.000542,1.000000,0.000580,0.000790,-0.000581,1.000000
08771,5.216610,-1.094550,8.289038,-0.038309,-0.004787,0.042145,0.004649,-0.001210,-0.001619,0.821127,-0.505381,-1.541915,0.052166,-0.010948,0.082890,1.000000,0.000023,-0.000006,-0.000008,1.000000,0.000280,0.000397,-0.000270,0.032100,0.045458,-0.030951,1.000000,-0.000540,-0.000793,0.000541,1.000000,0.000560,0.000793,-0.000561,1.000000
08772,5.229610,-1.078498,8.199994,0.020964,-0.000400,-0.027421,0.005266,0.000571,-0.002371,0.823120,-0.500518,-1.547823,0.052296,-0.010788,0.082000,1.000000,0.000026,0.000003,-0.000012,1.000000,0.000276,0.000407,-0.000276,0.031626,0.046688,-0.031625,1.000000,-0.000552,-0.000815,0.000552,1.000000,0.000552,0.000815,-0.000552,1.000000
08773,5.213974,-1.110951,8.272210,-0.032694,-0.022976,0.028431,0.005054,-0.003817,-0.001665,0.810111,-0.503444,-1.549162,0.052138,-0.011112,0.082723,1.000000,0.000025,-0.000019,-0.000008,1.000000,0.000267,0.000396,-0.000273,0.030576,0.045383,-0.031290,1.000000,-0.000546,-0.000792,0.000547,1.000000,0.000534,0.000792,-0.000534,1.000000
08774,5.240210,-1.083957,8.240418,0.008115,-0.000297,0.012749,0.005319,0.000257,-0.004692,0.822449,-0.500476,-1.541265,0.052402,-0.010843,0.082404,1.000000,0.000027,0.000001,-0.000023,1.000000,0.000267,0.000401,-0.000289,0.030611,0.045963,-0.033092,1.000000,-0.000578,-0.000802,0.000578,1.000000,0.000534,0.000802,-0.000535,1.000000
08775,5.219977,-1.072471,8.232589,-0.004157,0.010098,-0.005865,0.006075,-0.004644,-0.002461,0.813366,-0.507843,-1.553409,0.052198,-0.010728,0.082327,1.000000,0.000030,-0.000023,-0.000012,1.000000,0.000264,0.000385,-0.000286,0.030264,0.044129,-0.032776,1.000000,-0.000572,-0.000770,0.000572,1.000000,0.000528,0.000770,-0.000529,1.000000
08776,5.224797,-1.113295,8.239350,-0.006641,-0.029477,0.006880,0.006287,-0.000256,-0.003168,0.818142,-0.506467,-1.538095,0.052248,-0.011136,0.082393,1.000000,0.000031,-0.000001,-0.000016,1.000000,0.000266,0.000389,-0.000290,0.030416,0.044640,-0.033172,1.000000,-0.000579,-0.000779,0.000579,1.000000,0.000531,0.000779,-0.000531,1.000000
08777,5.264296,-1.075343,8.264785,0.015796,0.011455,0.045074,0.006480,-0.007251,-0.002506,0.821190,-0.509541,-1.543845,0.052640,-0.010757,0.082649,1.000000,0.000032,-0.000036,-0.000013,1.000000,0.000263,0.000361,-0.000284,0.030174,0.041321,-0.032588,1.000000,-0.000569,-0.000721,0.000569,1.000000,0.000527,0.000721,-0.000527,1.000000
08778,5.244190,-1.063668,8.256897,0.003554,0.021798,0.026458,0.008947,-0.000129,-0.005513,0.811347,-0.512034,-1.541509,0.052442,-0.010642,0.082569,1.000000,0.000045,-0.000001,-0.000028,1.000000,0.000285,0.000366,-0.000286,0.032621,0.042004,-0.032719,1.000000,-0.000571,-0.000733,0.000571,1.000000,0.000569,0.000733,-0.000570,1.000000
08779,5.221109,-1.069534,8.232254,-0.003463,0.012683,-0.005868,0.006023,-0.004331,-0.000139,0.818336,-0.500746,-1.548474,0.052209,-0.010698,0.082323,1.000000,0.000030,-0.000022,-0.000001,1.000000,0.000275,0.000354,-0.000273,0.031559,0.040522,-0.031323,1.000000,-0.000547,-0.000707,0.000547,1.000000,0.000551,0.000707,-0.000551,1.000000
08780,5.241930,-1.079684,8.239886,0.009121,0.003590,0.012747,0.008682,-0.004204,-0.002485,0.815143,-0.499440,-1.549818,0.052417,-0.010801,0.082399,1.000000,0.000043,-0.000021,-0.000012,1.000000,0.000285,0.000338,-0.000257,0.032634,0.038764,-0.029396,1.000000,-0.000513,-0.000677,0.000513,1.000000,0.000570,0.000676,-0.000570,1.000000
08781,5.221708,-1.067926,8.232082,-0.003153,0.013979,-0.005869,0.009915,-0.000643,-0.003989,0.818448,-0.500252,-1.541785,0.052217,-0.010684,0.082320,1.000000,0.000050,-0.000003,-0.000020,1.000000,0.000304,0.000341,-0.000252,0.034771,0.039088,-0.028893,1.000000,-0.000504,-0.000682,0.000505,1.000000,0.000607,0.000682,-0.000607,1.000000
08782,5.242278,-1.077830,8.239907,0.009442,0.004941,0.012746,0.007309,-0.001085,-0.003963,0.818397,-0.502024,-1.544451,0.052422,-0.010782,0.082399,1.000000,0.000037,-0.000005,-0.000020,1.000000,0.000309,0.000341,-0.000265,0.035444,0.039052,-0.030369,1.000000,-0.000530,-0.000682,0.000530,1.000000,0.000619,0.000681,-0.000619,1.000000
08783,5.255537,-1.063809,8.223972,0.029949,0.016592,0.004894,0.007714,-0.003692,-0.004007,0.818055,-0.505797,-1.547571,0.052554,-0.010642,0.082240,1.000000,0.000039,-0.000018,-0.000020,1.000000,0.000318,0.000328,-0.000265,0.036397,0.037642,-0.030355,1.000000,-0.000530,-0.000657,0.000530,1.000000,0.000635,0.000657,-0.000636,1.000000
08784,5.239863,-1.093593,8.223037,0.015029,-0.013252,-0.000958,0.008894,0.000183,-0.003191,0.818755,-0.495617,-1.546391,0.052399,-0.010940,0.082230,1.000000,0.000044,0.000001,-0.000016,1.000000,0.000330,0.000336,-0.000264,0.037843,0.038462,-0.030217,1.000000,-0.000527,-0.000671,0.000528,1.000000,0.000660,0.000671,-0.000661,1.000000
08785,5.232629,-1.071108,8.272603,-0.015643,0.015442,0.034300,0.005671,-0.002039,-0.002414,0.810921,-0.503965,-1.544495,0.052325,-0.010714,0.082726,1.000000,0.000028,-0.000010,-0.000012,1.000000,0.000326,0.000332,-0.000263,0.037390,0.038111,-0.030166,1.000000,-0.000526,-0.000665,0.000527,1.000000,0.000653,0.000665,-0.000653,1.000000
08786,5.255819,-1.061292,8.224117,0.030420,0.018599,0.004889,0.010179,0.003428,-0.007016,0.808306,-0.506925,-1.554996,0.052559,-0.010619,0.082240,1.000000,0.000051,0.000017,-0.000035,1.000000,0.000354,0.000352,-0.000281,0.040556,0.040325,-0.032163,1.000000,-0.000561,-0.000704,0.000562,1.000000,0.000708,0.000703,-0.000708,1.000000
08787,5.242795,-1.073582,8.240132,0.010253,0.008271,0.012743,0.005671,-0.002040,-0.002413,0.823340,-0.508309,-1.549087,0.052427,-0.010739,0.082402,1.000000,0.000028,-0.000010,-0.000012,1.000000,0.000350,0.000349,-0.000280,0.040103,0.039974,-0.032112,1.000000,-0.000560,-0.000698,0.000561,1.000000,0.000700,0.000697,-0.000700,1.000000
08788,5.225335,-1.044598,8.249156,-0.007325,0.038155,0.007821,0.007309,-0.001087,-0.003962,0.813227,-0.504527,-1.545864,0.052253,-0.010450,0.082491,1.000000,0.000037,-0.000005,-0.000020,1.000000,0.000358,0.000347,-0.000273,0.041021,0.039746,-0.031310,1.000000,-0.000546,-0.000694,0.000547,1.000000,0.000716,0.000693,-0.000716,1.000000
08789,5.219769,-1.078792,8.215552,0.003347,-0.000217,-0.019575,0.007256,-0.000772,-0.001641,0.822447,-0.510623,-1.541719,0.052197,-0.010791,0.082155,1.000000,0.000036,-0.000004,-0.000008,1.000000,0.000359,0.000350,-0.000266,0.041153,0.040172,-0.030483,1.000000,-0.000532,-0.000701,0.000533,1.000000,0.000718,0.000701,-0.000719,0.999999
08790,5.222704,-1.060746,8.232379,-0.001731,0.019922,-0.005879,0.004650,-0.001213,-0.001617,0.818572,-0.506203,-1.544270,0.052226,-0.010610,0.082324,1.000000,0.000023,-0.000006,-0.000008,1.000000,0.000351,0.000352,-0.000261,0.040206,0.040372,-0.029851,1.000000,-0.000521,-0.000705,0.000521,1.000000,0.000702,0.000704,-0.000702,1.000000
08791,5.222821,-1.060279,8.232365,-0.001561,0.020581,-0.005881,0.004650,-0.001213,-0.001617,0.814380,-0.503111,-1.541283,0.052228,-0.010605,0.082324,1.000000,0.000023,-0.000006,-0.000008,1.000000,0.000341,0.000354,-0.000260,0.039049,0.040549,-0.029781,1.000000,-0.000520,-0.000708,0.000520,1.000000,0.000682,0.000707,-0.000682,1.000000
08792,5.243426,-1.070279,8.240160,0.011050,0.011509,0.012739,0.010937,-0.001474,-0.004781,0.816143,-0.499991,-1.529888,0.052433,-0.010709,0.082401,1.000000,0.000055,-0.000007,-0.000024,1.000000,0.000366,0.000352,-0.000256,0.041979,0.040314,-0.029276,1.000000,-0.000511,-0.000704,0.000511,1.000000,0.000733,0.000703,-0.000733,0.999999
08793,5.230684,-1.082808,8.255974,-0.009117,0.001186,0.020601,0.004333,-0.004970,0.003734,0.811895,-0.507171,-1.548328,0.052305,-0.010829,0.082561,1.000000,0.000022,-0.000025,0.000019,1.000000,0.000340,0.000338,-0.000231,0.038899,0.038757,-0.026494,1.000000,-0.000462,-0.000676,0.000463,1.000000,0.000679,0.000676,-0.000679,1.000000
08794,5.254087,-1.073555,8.207272,0.036967,0.004276,-0.008817,0.008172,-0.000969,0.002204,0.823476,-0.505605,-1.542436,0.052541,-0.010738,0.082073,1.000000,0.000041,-0.000005,0.000011,1.000000,0.000335,0.000343,-0.000205,0.038395,0.039309,-0.023465,1.000000,-0.000410,-0.000686,0.000410,1.000000,0.000670,0.000686,-0.000670,1.000000
08795,5.228279,-1.099392,8.239008,-0.003537,-0.017029,0.006911,0.006993,-0.004845,0.001390,0.820997,-0.504792,-1.549949,0.052281,-0.010996,0.082391,1.000000,0.000035,-0.000024,0.000007,1.000000,0.000326,0.000328,-0.000183,0.037320,0.037648,-0.021006,1.000000,-0.000367,-0.000657,0.000367,1.000000,0.000651,0.000657,-0.000652,1.000000
08796,5.208266,-1.088018,8.231016,-0.015786,-0.006670,-0.011710,0.009952,-0.006697,0.003644,0.817014,-0.505161,-1.538137,0.052080,-0.010883,0.082311,1.000000,0.000050,-0.000033,0.000018,1.000000,0.000323,0.000308,-0.000150,0.036996,0.035269,-0.017191,1.000000,-0.000300,-0.000616,0.000300,1.000000,0.000646,0.000615,-0.000646,1.000000
08797,5.268368,-1.060865,8.264061,0.019120,0.024596,0.045044,0.008014,-0.005674,0.000595,0.815643,-0.501156,-1.542830,0.052681,-0.010612,0.082642,1.000000,0.000040,-0.000028,0.000003,1.000000,0.000320,0.000289,-0.000129,0.036623,0.033078,-0.014749,1.000000,-0.000257,-0.000577,0.000258,1.000000,0.000639,0.000577,-0.000639,1.000000
08798,5.224977,-1.056290,8.231510,-0.000351,0.025143,-0.005891,0.006887,-0.004214,0.006032,0.815392,-0.499614,-1.553418,0.052248,-0.010564,0.082316,1.000000,0.000034,-0.000021,0.000030,1.000000,0.000298,0.000281,-0.000092,0.034172,0.032156,-0.010565,1.000000,-0.000184,-0.000561,0.000185,1.000000,0.000596,0.000561,-0.000597,1.000000
08799,5.245936,-1.066811,8.239012,0.012266,0.016094,0.012731,0.007698,-0.009431,0.005947,0.818105,-0.503234,-1.544446,0.052456,-0.010670,0.082392,1.000000,0.000038,-0.000047,0.000030,1.000000,0.000278,0.000246,-0.000047,0.031876,0.028231,-0.005410,1.000000,-0.000094,-0.000493,0.000095,1.000000,0.000556,0.000493,-0.000556,1.000000
08800,5.253962,-1.090380,8.262394,0.004518,-0.003905,0.039225,0.008931,-0.005871,0.004441,0.813210,-0.505025,-1.548126,0.052537,-0.010906,0.082625,1.000000,0.000045,-0.000029,0.000022,1.000000,0.000267,0.000227,-0.000015,0.030621,0.026053,-0.001660,1.000000,-0.000029,-0.000455,0.000029,1.000000,0.000534,0.000455,-0.000534,1.000000
08801,5.230943,-1.096632,8.237685,-0.002515,-0.013064,0.006918,0.007504,-0.002436,0.005279,0.821215,-0.509445,-1.542970,0.052309,-0.010968,0.082377,1.000000,0.000038,-0.000012,0.000026,1.000000,0.000251,0.000227,0.000023,0.028712,0.026051,0.002673,1.000000,0.000047,-0.000455,-0.000046,1.000000,0.000501,0.000455,-0.000501,1.000000
08802,5.223807,-1.072168,8.213852,0.005540,0.008250,-0.019579,0.008983,-0.006189,0.002121,0.814223,-0.501060,-1.542866,0.052236,-0.010725,0.082140,1.000000,0.000045,-0.000031,0.000011,1.000000,0.000249,0.000206,0.000058,0.028486,0.023661,0.006617,1.000000,0.000115,-0.000413,-0.000115,1.000000,0.000497,0.000413,-0.000497,1.000000
08803,5.229019,-1.113096,8.220436,0.003064,-0.031301,-0.006760,0.006782,-0.009237,0.002105,0.820157,-0.508239,-1.539460,0.052287,-0.011133,0.082206,1.000000,0.000034,-0.000046,0.000011,1.000000,0.000235,0.000171,0.000084,0.026915,0.019558,0.009634,1.000000,0.000168,-0.000341,-0.000168,1.000000,0.000470,0.000341,-0.000470,1.000000
08804,5.232375,-1.095025,8.236990,-0.001995,-0.011131,0.006920,0.006692,-0.002874,-0.003207,0.813447,-0.512318,-1.547128,0.052322,-0.010954,0.082370,1.000000,0.000033,-0.000014,-0.000016,1.000000,0.000238,0.000164,0.000082,0.027278,0.018766,0.009372,1.000000,0.000164,-0.000328,-0.000163,1.000000,0.000476,0.000328,-0.000476,1.000000
08805,5.245598,-1.081094,8.221033,0.018512,0.000503,-0.000955,0.008277,-0.001606,-0.002436,0.821281,-0.503458,-1.544447,0.052455,-0.010815,0.082210,1.000000,0.000041,-0.000008,-0.000012,1.000000,0.000245,0.000163,0.000089,0.028112,0.018659,0.010181,1.000000,0.000178,-0.000326,-0.000178,1.000000,0.000491,0.000326,-0.000491,1.000000
08806,5.245787,-1.080394,8.221004,0.018680,0.001132,-0.000955,0.006640,-0.002558,-0.000886,0.815678,-0.501462,-1.543342,0.052457,-0.010807,0.082210,1.000000,0.000033,-0.000013,-0.000004,1.000000,0.000243,0.000158,0.000103,0.027826,0.018122,0.011795,1.000000,0.000206,-0.000316,-0.000206,1.000000,0.000486,0.000316,-0.000486,1.000000
08807,5.241326,-1.038465,8.214060,0.021495,0.041997,-0.013786,0.004597,-0.000901,0.000705,0.821275,-0.508587,-1.546269,0.052413,-0.010386,0.082141,1.000000,0.000023,-0.000005,0.000004,1.000000,0.000226,0.000163,0.000113,0.025953,0.018651,0.012945,1.000000,0.000226,-0.000326,-0.000226,1.000000,0.000453,0.000326,-0.000453,1.000000
08808,5.256300,-1.085891,8.261499,0.005899,0.001302,0.039225,0.006287,-0.000266,-0.003165,0.821261,-0.500774,-1.551283,0.052563,-0.010862,0.082615,1.000000,0.000031,-0.000001,-0.000016,1.000000,0.000228,0.000169,0.000107,0.026170,0.019313,0.012317,1.000000,0.000215,-0.000337,-0.000215,1.000000,0.000457,0.000337,-0.000457,1.000000
08809,5.253417,-1.102546,8.244840,0.011310,-0.017571,0.025552,0.009509,0.001953,-0.003943,0.814085,-0.500348,-1.545394,0.052535,-0.011030,0.082447,1.000000,0.000048,0.000010,-0.000020,1.000000,0.000246,0.000184,0.000109,0.028201,0.021115,0.012553,1.000000,0.000219,-0.000369,-0.000219,1.000000,0.000492,0.000369,-0.000492,1.000000
08810,5.248893,-1.060401,8.237957,0.014113,0.023323,0.012714,0.005003,-0.003509,0.000665,0.816487,-0.503006,-1.547831,0.052488,-0.010606,0.082380,1.000000,0.000025,-0.000018,0.000003,1.000000,0.000229,0.000175,0.000111,0.026254,0.020076,0.012696,1.000000,0.000222,-0.000350,-0.000221,1.000000,0.000458,0.000350,-0.000458,1.000000
08811,5.243209,-1.094774,8.204453,0.024762,-0.015092,-0.014628,0.006550,0.003804,-0.006198,0.823460,-0.506381,-1.540579,0.052433,-0.010952,0.082043,1.000000,0.000033,0.000019,-0.000031,1.000000,0.000241,0.000199,0.000094,0.027607,0.022761,0.010827,1.000000,0.000189,-0.000397,-0.000189,1.000000,0.000482,0.000397,-0.000482,1.000000
08812,5.202378,-1.074464,8.262241,-0.038648,0.012390,0.009847,0.007308,-0.001096,-0.003959,0.817303,-0.499700,-1.546378,0.052023,-0.010749,0.082622,1.000000,0.000037,-0.000005,-0.000020,1.000000,0.000249,0.000200,0.000086,0.028528,0.022969,0.009868,1.000000,0.000172,-0.000401,-0.000172,1.000000,0.000498,0.000401,-0.000498,1.000000
08813,5.256337,-1.082110,8.261971,0.006759,0.004631,0.039223,0.006903,0.001512,-0.003918,0.814792,-0.502832,-1.545142,0.052564,-0.010825,0.082619,1.000000,0.000035,0.000008,-0.000020,1.000000,0.000255,0.000214,0.000082,0.029270,0.024522,0.009348,1.000000,0.000163,-0.000428,-0.000163,1.000000,0.000511,0.000428,-0.000511,1.000000
08814,5.235877,-1.070690,8.254263,-0.005538,0.015004,0.020592,0.003680,-0.000707,-0.003139,0.821339,-0.500764,-1.544540,0.052358,-0.010709,0.082543,1.000000,0.000018,-0.000004,-0.000016,1.000000,0.000244,0.000216,0.000066,0.028014,0.024775,0.007567,1.000000,0.000132,-0.000432,-0.000132,1.000000,0.000489,0.000432,-0.000489,1.000000
08815,5.246081,-1.074455,8.221595,0.020207,0.007089,-0.000961,0.004348,0.000755,-0.006214,0.814015,-0.498690,-1.541621,0.052461,-0.010748,0.082216,1.000000,0.000022,0.000004,-0.000031,1.000000,0.000246,0.000225,0.000045,0.028182,0.025727,0.005211,1.000000,0.000091,-0.000449,-0.000091,1.000000,0.000492,0.000449,-0.000492,1.000000
08816,5.253575,-1.097727,8.245383,0.012495,-0.012886,0.025558,0.006287,-0.000268,-0.003163,0.816419,-0.504765,-1.548181,0.052535,-0.010981,0.082454,1.000000,0.000031,-0.000001,-0.000016,1.000000,0.000246,0.000230,0.000031,0.028201,0.026363,0.003571,1.000000,0.000062,-0.000460,-0.000062,1.000000,0.000492,0.000460,-0.000492,1.000000
08817,5.233329,-1.086275,8.237542,0.000214,-0.002535,0.006926,0.005107,-0.004145,-0.003974,0.814056,-0.508778,-1.537108,0.052331,-0.010866,0.082376,1.000000,0.000026,-0.000021,-0.000020,1.000000,0.000243,0.000216,0.000025,0.027863,0.024698,0.002833,1.000000,0.000049,-0.000431,-0.000049,1.000000,0.000486,0.000431,-0.000486,1.000000
08818,5.226127,-1.061712,8.213734,0.008263,0.018745,-0.019596,0.003732,-0.001025,-0.005459,0.826324,-0.504619,-1.542833,0.052261,-0.010620,0.082137,1.000000,0.000019,-0.000005,-0.000027,1.000000,0.000241,0.000215,0.000012,0.027611,0.024650,0.001417,1.000000,0.000025,-0.000430,-0.000025,1.000000,0.000482,0.000430,-0.000482,1.000000
08819,5.236551,-1.067521,8.254245,-0.004690,0.018300,0.020587,0.007256,-0.000779,-0.001638,0.822108,-0.505551,-1.549421,0.052365,-0.010679,0.082542,1.000000,0.000036,-0.000004,-0.000008,1.000000,0.000242,0.000219,0.000020,0.027742,0.025072,0.002245,1.000000,0.000039,-0.000438,-0.000039,1.000000,0.000484,0.000438,-0.000484,1.000000
08820,5.233914,-1.084433,8.237413,0.000761,-0.000599,0.006927,0.005056,-0.003828,-0.001653,0.813616,-0.507505,-1.552432,0.052337,-0.010847,0.082375,1.000000,0.000025,-0.000019,-0.000008,1.000000,0.000234,0.000210,0.000011,0.026770,0.024034,0.001288,1.000000,0.000022,-0.000419,-0.000022,1.000000,0.000467,0.000419,-0.000467,1.000000
08821,5.264930,-1.101006,8.285640,0.000261,-0.010722,0.065745,0.007308,-0.001098,-0.003957,0.826960,-0.503052,-1.543841,0.052649,-0.011014,0.082856,1.000000,0.000037,-0.000005,-0.000020,1.000000,0.000241,0.000210,0.000009,0.027616,0.024102,0.001038,1.000000,0.000018,-0.000421,-0.000018,1.000000,0.000482,0.000421,-0.000482,1.000000
08822,5.234311,-1.083076,8.237339,0.001107,0.000713,0.006927,0.005671,-0.002049,-0.002408,0.817905,-0.498896,-1.543213,0.052342,-0.010834,0.082374,1.000000,0.000028,-0.000010,-0.000012,1.000000,0.000237,0.000208,0.000005,0.027207,0.023785,0.000555,1.000000,0.000010,-0.000415,-0.000009,1.000000,0.000475,0.000415,-0.000475,1.000000
08823,5.270749,-1.062559,8.245969,0.028833,0.022198,0.031321,0.006287,-0.000269,-0.003162,0.816067,-0.505765,-1.548538,0.052707,-0.010629,0.082459,1.000000,0.000031,-0.000001,-0.000016,1.000000,0.000239,0.000213,0.000003,0.027350,0.024383,0.000322,1.000000,0.000006,-0.000426,-0.000005,1.000000,0.000477,0.000426,-0.000477,1.000000
08824,5.237337,-1.064243,8.254170,-0.003798,0.021593,0.020580,0.006287,-0.000270,-0.003162,0.814889,-0.507555,-1.549874,0.052373,-0.010646,0.082541,1.000000,0.000031,-0.000001,-0.000016,1.000000,0.000239,0.000217,-0.000004,0.027439,0.024917,-0.000480,1.000000,-0.000008,-0.000435,0.000009,1.000000,0.000479,0.000435,-0.000479,1.000000
08825,5.281127,-1.065700,8.213270,0.054732,0.014935,0.009767,0.005004,-0.003510,0.000667,0.819754,-0.497938,-1.548892,0.052810,-0.010659,0.082133,1.000000,0.000025,-0.000018,0.000003,1.000000,0.000224,0.000209,0.000008,0.025671,0.023961,0.000940,1.000000,0.000016,-0.000418,-0.000016,1.000000,0.000448,0.000418,-0.000448,1.000000
08826,5.237650,-1.063243,8.254100,-0.003481,0.022930,0.020577,0.006235,0.000049,-0.000842,0.819589,-0.496275,-1.549547,0.052376,-0.010635,0.082541,1.000000,0.000031,0.000000,-0.000004,1.000000,0.000218,0.000216,0.000011,0.025013,0.024778,0.001299,1.000000,0.000023,-0.000432,-0.000022,1.000000,0.000437,0.000432,-0.000437,1.000000
08827,5.234754,-1.080090,8.237449,0.001920,0.004037,0.006926,0.005933,0.002020,-0.005442,0.809664,-0.503138,-1.548910,0.052348,-0.010805,0.082374,1.000000,0.000030,0.000010,-0.000027,1.000000,0.000225,0.000231,-0.000003,0.025766,0.026506,-0.000283,1.000000,-0.000005,-0.000463,0.000005,1.000000,0.000450,0.000463,-0.000450,1.000000
08828,5.231873,-1.096877,8.220800,0.007275,-0.014821,-0.006724,0.005318,0.000240,-0.004687,0.813057,-0.507759,-1.539643,0.052319,-0.010972,0.082208,1.000000,0.000027,0.000001,-0.000023,1.000000,0.000224,0.000236,-0.000019,0.025705,0.027018,-0.002165,1.000000,-0.000038,-0.000472,0.000038,1.000000,0.000449,0.000472,-0.000449,1.000000
08829,5.247786,-1.065634,8.221655,0.022552,0.016348,-0.000977,0.004650,-0.001220,-0.001612,0.811767,-0.508997,-1.544921,0.052477,-0.010659,0.082217,1.000000,0.000023,-0.000006,-0.000008,1.000000,0.000214,0.000237,-0.000018,0.024547,0.027192,-0.002093,1.000000,-0.000037,-0.000475,0.000037,1.000000,0.000428,0.000475,-0.000428,1.000000
08830,5.224616,-1.073864,8.270393,-0.023212,0.014615,0.028474,0.005881,0.002338,-0.003122,0.815576,-0.503705,-1.543638,0.052247,-0.010742,0.082703,1.000000,0.000029,0.000012,-0.000016,1.000000,0.000217,0.000254,-0.000009,0.024838,0.029111,-0.000973,1.000000,-0.000017,-0.000508,0.000017,1.000000,0.000434,0.000508,-0.000434,1.000000
08831,5.255242,-1.088280,8.245573,0.014978,-0.003003,0.025562,0.008278,-0.001611,-0.002430,0.809715,-0.502691,-1.544871,0.052552,-0.010887,0.082456,1.000000,0.000041,-0.000008,-0.000012,1.000000,0.000224,0.000253,-0.000001,0.025671,0.029001,-0.000161,1.000000,-0.000003,-0.000506,0.000003,1.000000,0.000448,0.000506,-0.000448,1.000000
08832,5.234818,-1.076988,8.237815,0.002657,0.007331,0.006924,0.001637,0.000949,-0.001549,0.824105,-0.492443,-1.538856,0.052348,-0.010771,0.082378,1.000000,0.000008,0.000005,-0.000008,1.000000,0.000202,0.000264,-0.000006,0.023123,0.030197,-0.000693,1.000000,-0.000012,-0.000527,0.000012,1.000000,0.000404,0.000527,-0.000404,1.000000
08833,5.244901,-1.080862,8.205216,0.028393,-0.000618,-0.014626,0.006903,0.001508,-0.003916,0.817617,-0.505659,-1.540008,0.052449,-0.010812,0.082051,1.000000,0.000035,0.000008,-0.000020,1.000000,0.000208,0.000277,-0.000011,0.023863,0.031747,-0.001213,1.000000,-0.000021,-0.000554,0.000021,1.000000,0.000416,0.000554,-0.000417,1.000000
08834,5.234803,-1.075810,8.237978,0.003041,0.008662,0.006922,0.005672,-0.002050,-0.002405,0.817429,-0.509601,-1.551156,0.052347,-0.010761,0.082380,1.000000,0.000028,-0.000010,-0.000012,1.000000,0.000204,0.000276,-0.000028,0.023340,0.031650,-0.003176,1.000000,-0.000055,-0.000552,0.000056,1.000000,0.000407,0.000552,-0.000407,1.000000
08835,5.234916,-1.075171,8.237990,0.003211,0.009323,0.006922,0.005318,0.000239,-0.004686,0.820084,-0.502608,-1.539803,0.052349,-0.010755,0.082380,1.000000,0.000027,0.000001,-0.000023,1.000000,0.000205,0.000283,-0.000039,0.023494,0.032422,-0.004470,1.000000,-0.000078,-0.000566,0.000078,1.000000,0.000410,0.000566,-0.000410,1.000000
08836,5.224843,-1.070051,8.270744,-0.022179,0.018575,0.028469,0.007309,-0.001102,-0.003954,0.814112,-0.502878,-1.548184,0.052248,-0.010705,0.082707,1.000000,0.000037,-0.000006,-0.000020,1.000000,0.000214,0.000284,-0.000041,0.024468,0.032516,-0.004734,1.000000,-0.000083,-0.000568,0.000083,1.000000,0.000427,0.000567,-0.000427,1.000000
08837,5.235093,-1.073679,8.238072,0.003555,0.010620,0.006920,0.006287,-0.000272,-0.003160,0.819527,-0.506747,-1.548532,0.052351,-0.010740,0.082380,1.000000,0.000031,-0.000001,-0.000016,1.000000,0.000215,0.000289,-0.000043,0.024611,0.033113,-0.004966,1.000000,-0.000087,-0.000578,0.000087,1.000000,0.000430,0.000578,-0.000430,1.000000
08838,5.242662,-1.097024,8.261839,-0.004183,-0.009337,0.033472,0.004650,-0.001221,-0.001611,0.817926,-0.504997,-1.540499,0.052426,-0.010973,0.082618,1.000000,0.000023,-0.000006,-0.000008,1.000000,0.000205,0.000289,-0.000042,0.023476,0.033151,-0.004778,1.000000,-0.000083,-0.000579,0.000084,1.000000,0.000410,0.000579,-0.000410,1.000000
08839,5.235323,-1.072573,8.238070,0.003871,0.011936,0.006919,0.004703,-0.001541,-0.003930,0.820251,-0.508989,-1.548308,0.052352,-0.010729,0.082381,1.000000,0.000024,-0.000008,-0.000020,1.000000,0.000201,0.000288,-0.000051,0.023032,0.032969,-0.005784,1.000000,-0.000101,-0.000575,0.000101,1.000000,0.000402,0.000575,-0.000402,1.000000
08840,5.235410,-1.071935,8.238098,0.004052,0.012565,0.006918,0.004348,0.000748,-0.006211,0.807825,-0.508449,-1.546910,0.052354,-0.010723,0.082381,1.000000,0.000022,0.000004,-0.000031,1.000000,0.000204,0.000297,-0.000070,0.023381,0.033987,-0.008027,1.000000,-0.000140,-0.000593,0.000140,1.000000,0.000408,0.000593,-0.000408,1.000000
08841,5.240022,-1.112650,8.245212,0.001563,-0.026950,0.019840,0.006903,0.001506,-0.003915,0.820065,-0.499390,-1.548470,0.052401,-0.011130,0.082451,1.000000,0.000035,0.000008,-0.000020,1.000000,0.000211,0.000310,-0.000075,0.024121,0.035537,-0.008546,1.000000,-0.000149,-0.000620,0.000149,1.000000,0.000421,0.000620,-0.000421,1.000000
08842,5.258739,-1.063761,8.262825,0.011579,0.023793,0.039191,0.005672,-0.002052,-0.002404,0.809483,-0.502787,-1.545876,0.052586,-0.010641,0.082628,1.000000,0.000028,-0.000010,-0.000012,1.000000,0.000206,0.000305,-0.000070,0.023654,0.034927,-0.008020,1.000000,-0.000140,-0.000610,0.000140,1.000000,0.000413,0.000610,-0.000413,1.000000
08843,5.248586,-1.056783,8.222286,0.024856,0.025490,-0.001002,0.003733,-0.001032,-0.005455,0.817022,-0.505797,-1.548222,0.052485,-0.010571,0.082223,1.000000,0.000019,-0.000005,-0.000027,1.000000,0.000203,0.000305,-0.000088,0.023222,0.034921,-0.010087,1.000000,-0.000176,-0.000609,0.000176,1.000000,0.000405,0.000609,-0.000405,1.000000
08844,5.243255,-1.093248,8.261963,-0.003240,-0.005397,0.033475,0.005672,-0.002052,-0.002403,0.816505,-0.502787,-1.541449,0.052432,-0.010935,0.082620,1.000000,0.000028,-0.000010,-0.000012,1.000000,0.000199,0.000299,-0.000082,0.022780,0.034301,-0.009385,1.000000,-0.000164,-0.000599,0.000164,1.000000,0.000398,0.000599,-0.000398,1.000000
08845,5.235892,-1.068699,8.238212,0.004812,0.015865,0.006913,0.006288,-0.000273,-0.003159,0.809827,-0.502430,-1.546880,0.052359,-0.010690,0.082382,1.000000,0.000031,-0.000001,-0.000016,1.000000,0.000200,0.000305,-0.000084,0.022922,0.034897,-0.009616,1.000000,-0.000168,-0.000609,0.000168,1.000000,0.000400,0.000609,-0.000400,1.000000
08846,5.223043,-1.081205,8.254163,-0.015389,0.005586,0.014831,0.006642,-0.002562,-0.000877,0.819198,-0.503189,-1.541144,0.052229,-0.010815,0.082542,1.000000,0.000033,-0.000013,-0.000004,1.000000,0.000196,0.000298,-0.000072,0.022445,0.034168,-0.008262,1.000000,-0.000144,-0.000596,0.000144,1.000000,0.000392,0.000596,-0.000392,1.000000
08847,5.220412,-1.098038,8.237377,-0.009997,-0.013327,0.001205,0.009249,-0.002124,-0.000901,0.819148,-0.507031,-1.555714,0.052203,-0.010984,0.082374,1.000000,0.000046,-0.000011,-0.000005,1.000000,0.000203,0.000296,-0.000056,0.023266,0.033881,-0.006386,1.000000,-0.000111,-0.000591,0.000112,1.000000,0.000406,0.000591,-0.000406,1.000000
08848,5.254075,-1.094784,8.229211,0.022962,-0.011391,0.011930,0.008331,-0.001935,-0.004745,0.806138,-0.506819,-1.548810,0.052540,-0.010953,0.082292,1.000000,0.000042,-0.000010,-0.000024,1.000000,0.000217,0.000291,-0.000060,0.024859,0.033391,-0.006877,1.000000,-0.000120,-0.000583,0.000120,1.000000,0.000434,0.000583,-0.000434,1.000000
08849,5.223750,-1.078739,8.254038,-0.014884,0.007560,0.014831,0.009656,-0.004733,-0.000937,0.819227,-0.507833,-1.543020,0.052235,-0.010792,0.082541,1.000000,0.000048,-0.000024,-0.000005,1.000000,0.000225,0.000276,-0.000041,0.025784,0.031619,-0.004729,1.000000,-0.000083,-0.000552,0.000083,1.000000,0.000450,0.000552,-0.000450,1.000000
08850,5.234241,-1.082526,8.221195,0.010803,-0.000443,-0.006716,0.005006,-0.003511,0.000672,0.818459,-0.505395,-1.545923,0.052341,-0.010827,0.082213,1.000000,0.000025,-0.000018,0.000003,1.000000,0.000211,0.000266,-0.000018,0.024167,0.030425,-0.002003,1.000000,-0.000035,-0.000531,0.000035,1.000000,0.000422,0.000531,-0.000422,1.000000
08851,5.260745,-1.057531,8.262348,0.012988,0.029718,0.039173,0.008738,-0.004546,-0.004781,0.819580,-0.508947,-1.541750,0.052605,-0.010580,0.082624,1.000000,0.000044,-0.000023,-0.000024,1.000000,0.000225,0.000248,-0.000017,0.025817,0.028471,-0.001995,1.000000,-0.000035,-0.000497,0.000035,1.000000,0.000451,0.000497,-0.000451,1.000000
08852,5.245276,-1.087364,8.261457,-0.001942,-0.000168,0.033477,0.006695,-0.002885,-0.003195,0.820179,-0.504148,-1.549109,0.052451,-0.010877,0.082615,1.000000,0.000033,-0.000014,-0.000016,1.000000,0.000229,0.000242,-0.000016,0.026256,0.027678,-0.001804,1.000000,-0.000031,-0.000483,0.000032,1.000000,0.000458,0.000483,-0.000458,1.000000
08853,5.235335,-1.080275,8.220795,0.011327,0.001501,-0.006717,0.008072,-0.006004,-0.001706,0.822299,-0.494343,-1.543774,0.052351,-0.010807,0.082209,1.000000,0.000040,-0.000030,-0.000009,1.000000,0.000232,0.000219,-0.000004,0.026594,0.025127,-0.000429,1.000000,-0.000007,-0.000439,0.000008,1.000000,0.000464,0.000439,-0.000464,1.000000
08854,5.248669,-1.066465,8.204690,0.031853,0.013122,-0.014645,0.005673,-0.002054,-0.002402,0.814544,-0.505541,-1.547495,0.052486,-0.010668,0.082047,1.000000,0.000028,-0.000010,-0.000012,1.000000,0.000227,0.000217,-0.000020,0.025974,0.024879,-0.002320,1.000000,-0.000040,-0.000434,0.000041,1.000000,0.000453,0.000434,-0.000453,1.000000
08855,5.235878,-1.078903,8.220629,0.011685,0.002846,-0.006717,0.009249,-0.002126,-0.000899,0.816972,-0.507079,-1.539902,0.052358,-0.010793,0.082206,1.000000,0.000046,-0.000011,-0.000004,1.000000,0.000234,0.000215,-0.000004,0.026794,0.024591,-0.000443,1.000000,-0.000008,-0.000429,0.000008,1.000000,0.000468,0.000429,-0.000468,1.000000
08856,5.269435,-1.075774,8.212499,0.044642,0.004767,0.004001,0.004347,0.000742,-0.006209,0.822897,-0.501828,-1.544265,0.052694,-0.010761,0.082125,1.000000,0.000022,0.000004,-0.000031,1.000000,0.000237,0.000222,-0.000020,0.027109,0.025493,-0.002330,1.000000,-0.000041,-0.000445,0.000041,1.000000,0.000473,0.000445,-0.000473,1.000000
08857,5.225760,-1.071182,8.180160,0.025113,0.005134,-0.046913,0.007613,-0.003074,0.000651,0.816137,-0.507957,-1.550480,0.052256,-0.010715,0.081802,1.000000,0.000038,-0.000015,0.000003,1.000000,0.000232,0.000216,-0.000001,0.026629,0.024783,-0.000149,1.000000,-0.000003,-0.000433,0.000003,1.000000,0.000465,0.000433,-0.000465,1.000000
08858,5.246382,-1.083084,8.261317,-0.000906,0.003797,0.033476,0.008132,0.005058,-0.005426,0.822218,-0.502430,-1.539068,0.052466,-0.010836,0.082611,1.000000,0.000041,0.000025,-0.000027,1.000000,0.000250,0.000247,-0.000015,0.028612,0.028265,-0.001672,1.000000,-0.000029,-0.000493,0.000029,1.000000,0.000499,0.000493,-0.000499,1.000000
08859,5.256420,-1.086788,8.228773,0.024818,-0.004195,0.011931,0.005621,-0.001733,-0.000082,0.810251,-0.506037,-1.537024,0.052563,-0.010870,0.082288,1.000000,0.000028,-0.000009,-0.000000,1.000000,0.000239,0.000247,-0.000005,0.027441,0.028262,-0.000536,1.000000,-0.000009,-0.000493,0.000010,1.000000,0.000479,0.000493,-0.000479,1.000000
08860,5.246319,-1.081749,8.261532,-0.000549,0.005096,0.033476,0.007872,0.000992,-0.002387,0.821757,-0.508665,-1.548865,0.052463,-0.010821,0.082615,1.000000,0.000039,0.000005,-0.000012,1.000000,0.000247,0.000259,-0.000001,0.028315,0.029733,-0.000110,1.000000,-0.000002,-0.000519,0.000002,1.000000,0.000494,0.000519,-0.000494,1.000000
08861,5.243417,-1.098526,8.244947,0.004836,-0.013829,0.019867,0.006902,0.001500,-0.003913,0.820689,-0.507569,-1.548544,0.052435,-0.010989,0.082449,1.000000,0.000035,0.000008,-0.000020,1.000000,0.000254,0.000273,-0.000006,0.029054,0.031280,-0.000628,1.000000,-0.000011,-0.000546,0.000011,1.000000,0.000507,0.000546,-0.000507,1.000000
08862,5.225722,-1.069389,8.254006,-0.012657,0.016034,0.014823,0.007924,0.000669,-0.004705,0.817563,-0.503202,-1.544502,0.052257,-0.010698,0.082539,1.000000,0.000040,0.000003,-0.000024,1.000000,0.000267,0.000282,-0.000010,0.030651,0.032361,-0.001164,1.000000,-0.000020,-0.000565,0.000021,1.000000,0.000535,0.000565,-0.000535,1.000000
08863,5.256284,-1.083784,8.229256,0.025524,-0.001606,0.011930,0.006850,0.001822,-0.001594,0.825293,-0.506733,-1.542571,0.052564,-0.010841,0.082292,1.000000,0.000034,0.000009,-0.000008,1.000000,0.000268,0.000299,-0.000005,0.030676,0.034264,-0.000604,1.000000,-0.000011,-0.000598,0.000011,1.000000,0.000535,0.000598,-0.000535,1.000000
08864,5.235572,-1.072411,8.221673,0.013265,0.008675,-0.006723,0.007413,0.003923,-0.000032,0.819391,-0.509729,-1.551063,0.052357,-0.010727,0.082215,1.000000,0.000037,0.000020,-0.000000,1.000000,0.000268,0.000329,-0.000000,0.030687,0.037659,-0.000001,1.000000,-0.000000,-0.000657,0.000000,1.000000,0.000536,0.000657,-0.000536,1.000000
08865,5.242852,-1.095590,8.245697,0.005556,-0.011229,0.019869,0.004962,0.002516,-0.006964,0.821977,-0.502892,-1.545552,0.052429,-0.010960,0.082456,1.000000,0.000025,0.000013,-0.000035,1.000000,0.000274,0.000345,-0.000023,0.031450,0.039555,-0.002642,1.000000,-0.000046,-0.000690,0.000046,1.000000,0.000549,0.000690,-0.000549,1.000000
08866,5.238231,-1.053478,8.238686,0.008396,0.029571,0.006878,0.007614,-0.003074,0.000654,0.818819,-0.503472,-1.548325,0.052381,-0.010538,0.082387,1.000000,0.000038,-0.000015,0.000003,1.000000,0.000271,0.000339,-0.000006,0.031049,0.038873,-0.000734,1.000000,-0.000013,-0.000678,0.000013,1.000000,0.000542,0.000678,-0.000542,1.000000
08867,5.245846,-1.076662,8.262497,0.000688,0.009671,0.033472,0.008843,0.000481,-0.000859,0.824516,-0.503636,-1.541797,0.052459,-0.010771,0.082624,1.000000,0.000044,0.000002,-0.000004,1.000000,0.000277,0.000350,0.000008,0.031764,0.040069,0.000873,1.000000,0.000015,-0.000699,-0.000015,1.000000,0.000554,0.000699,-0.000554,1.000000
08868,5.242949,-1.093511,8.245911,0.006093,-0.009264,0.019871,0.007821,0.001312,-0.000067,0.821807,-0.506637,-1.543909,0.052430,-0.010938,0.082458,1.000000,0.000039,0.000007,-0.000000,1.000000,0.000277,0.000366,0.000013,0.031796,0.041934,0.001453,1.000000,0.000025,-0.000732,-0.000025,1.000000,0.000555,0.000732,-0.000555,1.000000
08869,5.235390,-1.069044,8.222228,0.014140,0.011953,-0.006727,0.006236,0.000043,-0.000837,0.814870,-0.503056,-1.547096,0.052354,-0.010693,0.082222,1.000000,0.000031,0.000000,-0.000004,1.000000,0.000272,0.000374,0.000020,0.031223,0.042883,0.002302,1.000000,0.000040,-0.000748,-0.000040,1.000000,0.000545,0.000748,-0.000545,1.000000
08870,5.242852,-1.092413,8.246118,0.006429,-0.007951,0.019872,0.004244,0.001383,-0.001571,0.809899,-0.507805,-1.544247,0.052429,-0.010926,0.082461,1.000000,0.000021,0.000007,-0.000008,1.000000,0.000262,0.000389,0.000016,0.030012,0.044520,0.001902,1.000000,0.000033,-0.000777,-0.000033,1.000000,0.000524,0.000777,-0.000524,1.000000
08871,5.235234,-1.068119,8.222447,0.014476,0.013262,-0.006730,0.003274,0.001892,-0.003097,0.818038,-0.507085,-1.550291,0.052353,-0.010683,0.082224,1.000000,0.000016,0.000009,-0.000015,1.000000,0.000251,0.000404,0.000006,0.028760,0.046351,0.000642,1.000000,0.000011,-0.000809,-0.000011,1.000000,0.000502,0.000809,-0.000502,1.000000
08872,5.245354,-1.073658,8.263200,0.001516,0.012949,0.033468,0.008184,0.004729,-0.007742,0.819203,-0.511601,-1.550307,0.052455,-0.010742,0.082630,1.000000,0.000041,0.000024,-0.000039,1.000000,0.000275,0.000429,-0.000004,0.031527,0.049200,-0.000411,1.000000,-0.000007,-0.000859,0.000008,1.000000,0.000550,0.000859,-0.000550,0.999999
08873,5.219111,-1.097344,8.222107,-0.000356,-0.015958,-0.012377,0.005569,-0.001411,0.002239,0.813375,-0.506687,-1.547471,0.052191,-0.010975,0.082221,1.000000,0.000028,-0.000007,0.000011,1.000000,0.000259,0.000432,0.000016,0.029642,0.049554,0.001804,1.000000,0.000031,-0.000865,-0.000031,1.000000,0.000517,0.000865,-0.000517,0.999999
08874,5.224836,-1.061635,8.255568,-0.010637,0.023871,0.014810,0.004400,0.000412,-0.008524,0.817923,-0.500234,-1.544157,0.052248,-0.010620,0.082555,1.000000,0.000022,0.000002,-0.000043,1.000000,0.000268,0.000436,-0.000005,0.030685,0.049956,-0.000542,1.000000,-0.000009,-0.000872,0.000010,1.000000,0.000536,0.000872,-0.000536,0.999999
08875,5.235045,-1.065335,8.222929,0.015079,0.015850,-0.006734,0.006288,-0.000281,-0.003153,0.818204,-0.509815,-1.545976,0.052350,-0.010657,0.082229,1.000000,0.000031,-0.000001,-0.000016,1.000000,0.000269,0.000441,-0.000007,0.030826,0.050548,-0.000770,1.000000,-0.000013,-0.000882,0.000014,1.000000,0.000538,0.000882,-0.000538,0.999999
08876,5.222087,-1.077837,8.238982,-0.005093,0.005581,0.001216,0.005266,0.000551,-0.002362,0.813665,-0.503641,-1.544270,0.052221,-0.010781,0.082389,1.000000,0.000026,0.000003,-0.000012,1.000000,0.000265,0.000451,-0.000010,0.030327,0.051644,-0.001080,1.000000,-0.000019,-0.000901,0.000019,1.000000,0.000529,0.000901,-0.000529,0.999999
08877,5.242770,-1.087976,8.246757,0.007538,-0.003383,0.019874,0.006082,-0.004668,-0.002431,0.827250,-0.498938,-1.544302,0.052426,-0.010883,0.082468,1.000000,0.000030,-0.000023,-0.000012,1.000000,0.000262,0.000435,-0.000007,0.029973,0.049798,-0.000746,1.000000,-0.000013,-0.000869,0.000013,1.000000,0.000523,0.000869,-0.000523,0.999999
08878,5.202003,-1.065922,8.231060,-0.017203,0.016535,-0.017443,0.006236,0.000042,-0.000835,0.814199,-0.504806,-1.556561,0.052020,-0.010662,0.082310,1.000000,0.000031,0.000000,-0.000004,1.000000,0.000256,0.000444,-0.000010,0.029333,0.050829,-0.001152,1.000000,-0.000020,-0.000887,0.000021,1.000000,0.000512,0.000887,-0.000512,0.999999
08879,5.232760,-1.080638,8.206169,0.020974,-0.001118,-0.020327,0.003067,-0.002496,-0.002374,0.812135,-0.505129,-1.540927,0.052326,-0.010808,0.082062,1.000000,0.000015,-0.000012,-0.000012,1.000000,0.000241,0.000438,-0.000016,0.027588,0.050221,-0.001850,1.000000,-0.000032,-0.000877,0.000033,1.000000,0.000481,0.000877,-0.000482,0.999999
08880,5.240401,-1.103850,8.229982,0.013212,-0.020994,0.006288,0.008895,0.000155,-0.003175,0.817526,-0.511486,-1.537117,0.052404,-0.011043,0.082299,1.000000,0.000044,0.000001,-0.000016,1.000000,0.000253,0.000443,-0.000005,0.029013,0.050735,-0.000560,1.000000,-0.000010,-0.000885,0.000010,1.000000,0.000506,0.000885,-0.000506,0.999999
08881,5.243497,-1.085619,8.246606,0.008175,-0.000728,0.019874,0.006386,-0.006630,0.002172,0.823889,-0.504815,-1.541717,0.052432,-0.010858,0.082467,1.000000,0.000032,-0.000033,0.000011,1.000000,0.000239,0.000420,0.000019,0.027336,0.048118,0.002203,1.000000,0.000038,-0.000840,-0.000038,1.000000,0.000477,0.000840,-0.000477,1.000000
08882,5.229092,-1.039111,8.272004,-0.014490,0.048718,0.028381,0.007719,-0.003725,-0.003978,0.817313,-0.502728,-1.551429,0.052289,-0.010395,0.082721,1.000000,0.000039,-0.000019,-0.000020,1.000000,0.000249,0.000409,0.000020,0.028562,0.046924,0.002321,1.000000,0.000041,-0.000819,-0.000040,1.000000,0.000498,0.000819,-0.000498,1.000000
08883,5.210866,-1.086644,8.254429,-0.024247,-0.000749,0.009173,0.007053,-0.005178,-0.000903,0.824202,-0.496097,-1.547249,0.052106,-0.010870,0.082545,1.000000,0.000035,-0.000026,-0.000005,1.000000,0.000246,0.000392,0.000032,0.028196,0.044902,0.003718,1.000000,0.000065,-0.000784,-0.000065,1.000000,0.000492,0.000784,-0.000492,1.000000
08884,5.257587,-1.070590,8.230150,0.029058,0.012154,0.011913,0.005622,-0.001736,-0.000078,0.811245,-0.500134,-1.551876,0.052575,-0.010708,0.082302,1.000000,0.000028,-0.000009,-0.000000,1.000000,0.000234,0.000392,0.000028,0.026812,0.044876,0.003203,1.000000,0.000056,-0.000783,-0.000056,1.000000,0.000468,0.000783,-0.000468,1.000000
08885,5.257644,-1.069970,8.230195,0.029227,0.012814,0.011912,0.008843,0.000478,-0.000857,0.820575,-0.503344,-1.546074,0.052577,-0.010704,0.082301,1.000000,0.000044,0.000002,-0.000004,1.000000,0.000240,0.000402,0.000042,0.027527,0.046071,0.004812,1.000000,0.000084,-0.000804,-0.000084,1.000000,0.000480,0.000804,-0.000480,1.000000
08886,5.244611,-1.082481,8.246310,0.009023,0.002586,0.019873,0.004244,0.001381,-0.001570,0.815628,-0.506629,-1.556540,0.052447,-0.010827,0.082463,1.000000,0.000021,0.000007,-0.000008,1.000000,0.000228,0.000415,0.000037,0.026140,0.047514,0.004251,1.000000,0.000074,-0.000829,-0.000074,1.000000,0.000456,0.000829,-0.000456,1.000000
08887,5.254762,-1.086393,8.213681,0.034733,-0.005457,-0.001668,0.008229,-0.001300,-0.000099,0.817568,-0.511126,-1.542678,0.052547,-0.010867,0.082137,1.000000,0.000041,-0.000006,-0.000000,1.000000,0.000229,0.000417,0.000054,0.026257,0.047756,0.006148,1.000000,0.000107,-0.000833,-0.000107,1.000000,0.000458,0.000834,-0.000458,1.000000
08888,5.244674,-1.081239,8.246432,0.009332,0.003882,0.019872,0.004348,0.000731,-0.006205,0.821483,-0.496859,-1.544768,0.052447,-0.010816,0.082464,1.000000,0.000022,0.000004,-0.000031,1.000000,0.000232,0.000423,0.000042,0.026572,0.048518,0.004777,1.000000,0.000083,-0.000847,-0.000083,1.000000,0.000464,0.000847,-0.000464,1.000000
08889,5.223974,-1.069933,8.238817,-0.002963,0.014153,0.001209,0.005420,0.005260,-0.000768,0.811305,-0.514464,-1.547851,0.052242,-0.010702,0.082387,1.000000,0.000027,0.000026,-0.000004,1.000000,0.000225,0.000458,0.000044,0.025792,0.052436,0.005079,1.000000,0.000089,-0.000915,-0.000088,1.000000,0.000450,0.000915,-0.000450,0.999999
08890,5.221019,-1.086871,8.222287,0.002388,-0.004814,-0.012366,0.008281,-0.001625,-0.002415,0.819829,-0.508843,-1.549470,0.052209,-0.010873,0.082223,1.000000,0.000041,-0.000008,-0.000012,1.000000,0.000233,0.000456,0.000054,0.026693,0.052201,0.006222,1.000000,0.000109,-0.000911,-0.000108,1.000000,0.000466,0.000911,-0.000466,0.999999
08891,5.210955,-1.081711,8.255021,-0.022982,0.004555,0.009175,0.006236,0.000040,-0.000834,0.815311,-0.506933,-1.541845,0.052110,-0.010820,0.082550,1.000000,0.000031,0.000000,-0.000004,1.000000,0.000228,0.000464,0.000062,0.026119,0.053149,0.007073,1.000000,0.000123,-0.000928,-0.000123,1.000000,0.000456,0.000928,-0.000456,0.999999
08892,5.223986,-1.068090,8.239048,-0.002483,0.016092,0.001206,0.004652,-0.001229,-0.001603,0.811937,-0.505787,-1.544733,0.052239,-0.010683,0.082391,1.000000,0.000023,-0.000006,-0.000008,1.000000,0.000219,0.000465,0.000067,0.025127,0.053270,0.007732,1.000000,0.000135,-0.000930,-0.000135,1.000000,0.000439,0.000930,-0.000438,0.999999
08893,5.221256,-1.085274,8.222347,0.002887,-0.002866,-0.012365,0.004600,-0.000904,0.000715,0.819806,-0.511866,-1.543481,0.052212,-0.010854,0.082223,1.000000,0.000023,-0.000005,0.000004,1.000000,0.000203,0.000469,0.000077,0.023254,0.053798,0.008886,1.000000,0.000155,-0.000939,-0.000155,1.000000,0.000406,0.000939,-0.000406,0.999999
08894,5.254753,-1.082436,8.214209,0.035845,-0.000945,-0.001671,0.006236,0.000040,-0.000834,0.816430,-0.508327,-1.551402,0.052547,-0.010827,0.082142,1.000000,0.000031,0.000000,-0.000004,1.000000,0.000200,0.000477,0.000094,0.022900,0.054664,0.010749,1.000000,0.000188,-0.000954,-0.000187,1.000000,0.000400,0.000954,-0.000400,0.999999
08895,5.221298,-1.084269,8.222453,0.003211,-0.001586,-0.012365,0.006236,0.000040,-0.000833,0.823933,-0.506335,-1.537667,0.052213,-0.010845,0.082224,1.000000,0.000031,0.000000,-0.000004,1.000000,0.000195,0.000485,0.000101,0.022327,0.055612,0.011600,1.000000,0.000202,-0.000971,-0.000202,1.000000,0.000390,0.000971,-0.000389,0.999999
08896,5.244687,-1.076883,8.246994,0.010660,0.009062,0.019867,0.005622,-0.001737,-0.000075,0.815516,-0.505331,-1.547206,0.052446,-0.010771,0.082470,1.000000,0.000028,-0.000009,-0.000000,1.000000,0.000186,0.000486,0.000112,0.021319,0.055690,0.012818,1.000000,0.000224,-0.000972,-0.000223,1.000000,0.000372,0.000972,-0.000372,0.999999
08897,5.221165,-1.083174,8.222682,0.003563,-0.000297,-0.012365,0.004145,0.007725,-0.006897,0.823277,-0.503892,-1.544867,0.052214,-0.010835,0.082225,1.000000,0.000021,0.000039,-0.000034,1.000000,0.000191,0.000528,0.000084,0.021873,0.060549,0.009630,0.999999,0.000168,-0.001057,-0.000168,1.000000,0.000382,0.001057,-0.000382,0.999999
08898,5.231446,-1.088735,8.263336,-0.009337,-0.000523,0.027841,0.007054,-0.005180,-0.000898,0.810660,-0.500718,-1.548659,0.052312,-0.010891,0.082634,1.000000,0.000035,-0.000026,-0.000004,1.000000,0.000188,0.000511,0.000093,0.021541,0.058529,0.010677,0.999999,0.000186,-0.001022,-0.000186,1.000000,0.000376,0.001022,-0.000376,0.999999
08899,5.226821,-1.045043,8.182862,0.032109,0.032415,-0.046986,0.004652,-0.001230,-0.001602,0.824251,-0.507099,-1.548701,0.052268,-0.010453,0.081829,1.000000,0.000023,-0.000006,-0.000008,1.000000,0.000178,0.000512,0.000094,0.020381,0.058698,0.010755,0.999999,0.000188,-0.001024,-0.000187,1.000000,0.000356,0.001025,-0.000356,0.999999
08900,5.229075,-1.105250,8.246506,-0.003824,-0.018818,0.014280,0.006645,-0.002571,-0.000865,0.812582,-0.504645,-1.540721,0.052290,-0.011055,0.082465,1.000000,0.000033,-0.000013,-0.000004,1.000000,0.000173,0.000506,0.000102,0.019878,0.058020,0.011691,0.999999,0.000204,-0.001013,-0.000204,1.000000,0.000347,0.001013,-0.000347,0.999999
08901,5.224470,-1.063265,8.239366,-0.000983,0.021964,0.001195,0.005266,0.000546,-0.002360,0.824793,-0.506597,-1.550476,0.052245,-0.010635,0.082393,1.000000,0.000026,0.000003,-0.000012,1.000000,0.000169,0.000516,0.000100,0.019316,0.059141,0.011480,0.999999,0.000200,-0.001032,-0.000200,1.000000,0.000337,0.001032,-0.000337,0.999999
08902,5.232059,-1.086565,8.263233,-0.008685,0.002115,0.027842,0.005623,-0.001738,-0.000075,0.814743,-0.506975,-1.549184,0.052320,-0.010868,0.082632,1.000000,0.000028,-0.000009,-0.000000,1.000000,0.000159,0.000516,0.000110,0.018225,0.059123,0.012586,0.999999,0.000220,-0.001032,-0.000219,1.000000,0.000318,0.001032,-0.000318,0.999999
08903,5.245200,-1.073104,8.247161,0.011821,0.013674,0.019861,0.003986,-0.002681,0.001474,0.817133,-0.502910,-1.546565,0.052451,-0.010732,0.082472,1.000000,0.000020,-0.000013,0.000007,1.000000,0.000137,0.000512,0.000122,0.015754,0.058698,0.014030,0.999999,0.000245,-0.001024,-0.000245,1.000000,0.000275,0.001025,-0.000275,0.999999
08904,5.209034,-1.092517,8.238657,-0.015648,-0.006599,-0.004385,0.008896,0.000148,-0.003171,0.818927,-0.509431,-1.542087,0.052090,-0.010930,0.082386,1.000000,0.000044,0.000001,-0.000016,1.000000,0.000150,0.000518,0.000129,0.017199,0.059354,0.014801,0.999999,0.000258,-0.001036,-0.000258,1.000000,0.000300,0.001036,-0.000300,0.999999
08905,5.212032,-1.074279,8.255312,-0.020675,0.013690,0.009171,0.006950,-0.004529,0.003738,0.824536,-0.507367,-1.537708,0.052119,-0.010745,0.082554,1.000000,0.000035,-0.000023,0.000019,1.000000,0.000134,0.000507,0.000160,0.015406,0.058049,0.018356,0.999999,0.000320,-0.001013,-0.000320,1.000000,0.000269,0.001013,-0.000269,0.999999
08906,5.230114,-1.102086,8.246270,-0.002799,-0.014918,0.014287,0.008995,-0.006197,0.002159,0.816716,-0.511199,-1.550482,0.052299,-0.011024,0.082464,1.000000,0.000045,-0.000031,0.000011,1.000000,0.000133,0.000488,0.000191,0.015289,0.055928,0.021943,0.999999,0.000383,-0.000976,-0.000383,1.000000,0.000267,0.000976,-0.000266,0.999999
08907,5.236293,-1.066358,8.279362,-0.013020,0.025005,0.041394,0.008329,-0.007647,0.005235,0.819381,-0.507235,-1.544181,0.052360,-0.010666,0.082795,1.000000,0.000042,-0.000038,0.000026,1.000000,0.000118,0.000462,0.000234,0.013588,0.052964,0.026836,0.999999,0.000468,-0.000924,-0.000468,1.000000,0.000237,0.000925,-0.000237,1.000000
08908,5.244138,-1.087951,8.229719,0.017866,-0.002735,0.006303,0.008995,-0.006198,0.002160,0.814396,-0.501544,-1.542682,0.052439,-0.010883,0.082298,1.000000,0.000045,-0.000031,0.000011,1.000000,0.000117,0.000441,0.000272,0.013383,0.050533,0.031126,0.999999,0.000543,-0.000882,-0.000543,1.000000,0.000234,0.000882,-0.000233,1.000000
08909,5.224122,-1.076785,8.221643,0.005565,0.007514,-0.012369,0.006336,-0.006307,0.004498,0.816706,-0.508427,-1.547719,0.052239,-0.010769,0.082218,1.000000,0.000032,-0.000032,0.000022,1.000000,0.000096,0.000421,0.000305,0.010992,0.048275,0.034971,0.999999,0.000610,-0.000843,-0.000610,1.000000,0.000192,0.000843,-0.000191,1.000000
08910,5.255378,-1.093357,8.269790,0.005123,-0.002268,0.046512,0.006950,-0.004531,0.003740,0.820531,-0.503404,-1.551041,0.052552,-0.010935,0.082699,1.000000,0.000035,-0.000023,0.000019,1.000000,0.000081,0.000409,0.000337,0.009244,0.046856,0.038656,0.999999,0.000675,-0.000818,-0.000675,1.000000,0.000161,0.000818,-0.000161,1.000000
08911,5.245420,-1.086770,8.229058,0.018353,-0.000763,0.006302,0.004446,-0.005620,-0.000873,0.814571,-0.506513,-1.542960,0.052452,-0.010870,0.082292,1.000000,0.000022,-0.000028,-0.000004,1.000000,0.000066,0.000389,0.000343,0.007589,0.044586,0.039300,0.999999,0.000686,-0.000778,-0.000686,1.000000,0.000132,0.000778,-0.000132,1.000000
08912,5.248566,-1.068614,8.245602,0.013318,0.019528,0.019849,0.010172,-0.002320,0.002960,0.819918,-0.498020,-1.547321,0.052485,-0.010690,0.082456,1.000000,0.000051,-0.000012,0.000015,1.000000,0.000067,0.000388,0.000377,0.007710,0.044414,0.043198,0.999999,0.000754,-0.000775,-0.000754,1.000000,0.000135,0.000775,-0.000134,1.000000
08913,5.245672,-1.085621,8.229049,0.018680,0.000552,0.006302,0.002916,0.004168,-0.005384,0.817089,-0.501668,-1.546496,0.052458,-0.010859,0.082289,1.000000,0.000015,0.000021,-0.000027,1.000000,0.000062,0.000413,0.000354,0.007068,0.047365,0.040585,0.999999,0.000708,-0.000827,-0.000708,1.000000,0.000123,0.000827,-0.000123,1.000000
08914,5.245748,-1.085046,8.229076,0.018842,0.001239,0.006301,0.007054,-0.005185,-0.000893,0.812812,-0.514696,-1.540170,0.052455,-0.010854,0.082292,1.000000,0.000035,-0.000026,-0.000004,1.000000,0.000057,0.000395,0.000355,0.006543,0.045305,0.040672,0.999999,0.000710,-0.000791,-0.000710,1.000000,0.000114,0.000791,-0.000114,1.000000
08915,5.233096,-1.097693,8.244964,-0.001326,-0.008990,0.014295,0.003016,-0.002176,-0.000052,0.821539,-0.504824,-1.549893,0.052330,-0.010978,0.082450,1.000000,0.000015,-0.000011,-0.000000,1.000000,0.000035,0.000393,0.000358,0.004083,0.045053,0.041054,0.999999,0.000717,-0.000786,-0.000716,1.000000,0.000071,0.000786,-0.000071,1.000000
08916,5.246214,-1.084078,8.228907,0.019177,0.002518,0.006301,0.007311,-0.001126,-0.003939,0.824408,-0.495841,-1.544830,0.052461,-0.010845,0.082289,1.000000,0.000037,-0.000006,-0.000020,1.000000,0.000045,0.000393,0.000364,0.005162,0.045086,0.041715,0.999999,0.000728,-0.000787,-0.000728,1.000000,0.000090,0.000787,-0.000090,1.000000
08917,5.236281,-1.078956,8.261556,-0.006182,0.011931,0.027836,0.004038,-0.003010,-0.000841,0.820136,-0.504486,-1.549957,0.052362,-0.010791,0.082616,1.000000,0.000020,-0.000015,-0.000004,1.000000,0.000030,0.000387,0.000367,0.003403,0.044300,0.042084,0.999999,0.000734,-0.000773,-0.000734,1.000000,0.000059,0.000773,-0.000059,1.000000
08918,5.223575,-1.091553,8.277488,-0.026331,0.001731,0.035833,0.007616,-0.003083,0.000665,0.820256,-0.503048,-1.552435,0.052235,-0.010919,0.082775,1.000000,0.000038,-0.000015,0.000003,1.000000,0.000024,0.000381,0.000372,0.002784,0.043694,0.042582,0.999999,0.000743,-0.000763,-0.000743,1.000000,0.000049,0.000763,-0.000048,1.000000
08919,5.213453,-1.084787,8.236883,-0.013106,0.003213,-0.004379,0.007616,-0.003083,0.000666,0.821973,-0.509879,-1.544172,0.052133,-0.010851,0.082369,1.000000,0.000038,-0.000015,0.000003,1.000000,0.000020,0.000375,0.000391,0.002301,0.042981,0.044772,0.999999,0.000781,-0.000750,-0.000781,1.000000,0.000040,0.000750,-0.000040,1.000000
08920,5.244203,-1.099389,8.212024,0.025069,-0.014478,-0.007239,0.004346,0.000721,-0.006204,0.812433,-0.501650,-1.551472,0.052442,-0.010997,0.082120,1.000000,0.000022,0.000004,-0.000031,1.000000,0.000022,0.000384,0.000368,0.002548,0.043970,0.042149,0.999999,0.000736,-0.000767,-0.000736,1.000000,0.000044,0.000767,-0.000044,1.000000
08921,5.239699,-1.057226,8.204791,0.027915,0.026284,-0.020380,0.009661,-0.004752,-0.000913,0.821313,-0.500348,-1.540837,0.052395,-0.010576,0.082049,1.000000,0.000048,-0.000024,-0.000005,1.000000,0.000030,0.000368,0.000387,0.003468,0.042190,0.044312,0.999999,0.000773,-0.000736,-0.000773,1.000000,0.000061,0.000736,-0.000060,1.000000
08922,5.214204,-1.082652,8.236688,-0.012604,0.005195,-0.004379,0.007054,-0.005187,-0.000891,0.815750,-0.506581,-1.538421,0.052140,-0.010830,0.082368,1.000000,0.000035,-0.000026,-0.000004,1.000000,0.000026,0.000350,0.000392,0.002999,0.040085,0.044932,0.999999,0.000784,-0.000700,-0.000784,1.000000,0.000052,0.000700,-0.000052,1.000000
08923,5.237808,-1.075014,8.261102,-0.005151,0.015928,0.027831,0.006340,-0.000621,-0.005465,0.822849,-0.506527,-1.540068,0.052378,-0.010754,0.082611,1.000000,0.000032,-0.000003,-0.000027,1.000000,0.000033,0.000352,0.000381,0.003851,0.040309,0.043630,0.999999,0.000761,-0.000704,-0.000761,1.000000,0.000067,0.000704,-0.000067,1.000000
08924,5.245253,-1.096478,8.211742,0.025761,-0.011861,-0.007237,0.005675,-0.002070,-0.002389,0.819146,-0.503614,-1.551591,0.052452,-0.010968,0.082118,1.000000,0.000028,-0.000010,-0.000012,1.000000,0.000031,0.000350,0.000380,0.003598,0.040128,0.043574,0.999999,0.000761,-0.000700,-0.000760,1.000000,0.000063,0.000700,-0.000062,1.000000
08925,5.251168,-1.060686,8.244969,0.015558,0.028095,0.019825,0.004090,-0.003339,-0.003156,0.816194,-0.515966,-1.542788,0.052510,-0.010609,0.082450,1.000000,0.000020,-0.000017,-0.000016,1.000000,0.000022,0.000340,0.000374,0.002552,0.038983,0.042867,0.999999,0.000748,-0.000680,-0.000748,1.000000,0.000045,0.000680,-0.000044,1.000000
08926,5.235511,-1.090748,8.244353,0.000567,-0.001809,0.014299,0.007873,0.000975,-0.002380,0.820282,-0.502718,-1.542863,0.052355,-0.010911,0.082443,1.000000,0.000039,0.000005,-0.000012,1.000000,0.000030,0.000352,0.000386,0.003489,0.040299,0.044226,0.999999,0.000772,-0.000703,-0.000772,1.000000,0.000061,0.000703,-0.000060,1.000000
08927,5.245799,-1.094596,8.211645,0.026258,-0.009920,-0.007236,0.005112,-0.004175,-0.003945,0.818802,-0.503458,-1.546009,0.052456,-0.010949,0.082117,1.000000,0.000026,-0.000021,-0.000020,1.000000,0.000027,0.000337,0.000380,0.003143,0.038619,0.043505,0.999999,0.000759,-0.000674,-0.000759,1.000000,0.000055,0.000674,-0.000054,1.000000
08928,5.248827,-1.076315,8.228260,0.021254,0.010389,0.006291,0.004346,0.000719,-0.006203,0.813315,-0.509359,-1.553787,0.052488,-0.010767,0.082282,1.000000,0.000022,0.000004,-0.000031,1.000000,0.000029,0.000346,0.000352,0.003310,0.039619,0.040381,1.000000,0.000705,-0.000691,-0.000705,1.000000,0.000058,0.000692,-0.000057,1.000000
08929,5.246117,-1.093412,8.211600,0.026607,-0.008603,-0.007236,0.003068,-0.002505,-0.002367,0.818847,-0.507049,-1.553863,0.052460,-0.010936,0.082116,1.000000,0.000015,-0.000013,-0.000012,1.000000,0.000014,0.000340,0.000346,0.001562,0.039007,0.039688,1.000000,0.000693,-0.000681,-0.000693,1.000000,0.000027,0.000681,-0.000027,1.000000
08930,5.220483,-1.118956,8.243595,-0.013943,-0.029707,0.008784,0.005777,-0.002728,-0.007021,0.814406,-0.505619,-1.550481,0.052203,-0.011194,0.082436,1.000000,0.000029,-0.000014,-0.000035,1.000000,0.000022,0.000329,0.000335,0.002587,0.037658,0.038406,1.000000,0.000670,-0.000657,-0.000670,1.000000,0.000045,0.000657,-0.000045,1.000000
08931,5.215990,-1.076735,8.236333,-0.011094,0.011048,-0.004383,0.008282,-0.001636,-0.002409,0.811988,-0.504015,-1.542067,0.052159,-0.010771,0.082363,1.000000,0.000041,-0.000008,-0.000012,1.000000,0.000030,0.000328,0.000342,0.003416,0.037536,0.039231,1.000000,0.000685,-0.000655,-0.000685,1.000000,0.000060,0.000655,-0.000059,1.000000
08932,5.236642,-1.086616,8.244180,0.001512,0.002139,0.014298,0.007311,-0.001130,-0.003936,0.817688,-0.509431,-1.542868,0.052366,-0.010870,0.082442,1.000000,0.000037,-0.000006,-0.000020,1.000000,0.000037,0.000326,0.000344,0.004285,0.037374,0.039430,1.000000,0.000688,-0.000652,-0.000688,1.000000,0.000075,0.000652,-0.000074,1.000000
08933,5.260058,-1.078927,8.268709,0.008972,0.012893,0.046501,0.005317,0.000211,-0.004675,0.812519,-0.500718,-1.547488,0.052600,-0.010793,0.082687,1.000000,0.000027,0.000001,-0.000023,1.000000,0.000039,0.000333,0.000333,0.004435,0.038131,0.038143,1.000000,0.000666,-0.000666,-0.000666,1.000000,0.000077,0.000666,-0.000077,1.000000
08934,5.259878,-1.076608,8.195528,0.047687,0.005540,-0.015250,0.007311,-0.001131,-0.003936,0.816285,-0.509093,-1.542932,0.052598,-0.010770,0.081955,1.000000,0.000037,-0.000006,-0.000020,1.000000,0.000046,0.000332,0.000333,0.005333,0.038071,0.038106,1.000000,0.000665,-0.000664,-0.000665,1.000000,0.000093,0.000665,-0.000093,1.000000
08935,5.250014,-1.071225,8.228167,0.022337,0.014983,0.006283,0.008692,-0.004249,-0.002436,0.806498,-0.504919,-1.544804,0.052498,-0.010716,0.082282,1.000000,0.000043,-0.000021,-0.000012,1.000000,0.000055,0.000318,0.000342,0.006263,0.036463,0.039209,1.000000,0.000684,-0.000636,-0.000684,1.000000,0.000109,0.000636,-0.000109,1.000000
08936,5.221357,-1.114044,8.243707,-0.013024,-0.025783,0.008796,0.010122,0.003690,-0.004688,0.823655,-0.502774,-1.550044,0.052215,-0.011146,0.082436,1.000000,0.000051,0.000018,-0.000023,1.000000,0.000079,0.000340,0.000351,0.009020,0.038974,0.040187,1.000000,0.000701,-0.000680,-0.000701,1.000000,0.000157,0.000680,-0.000157,1.000000
08937,5.237058,-1.082391,8.244472,0.002300,0.005409,0.014297,0.006340,-0.000626,-0.005463,0.815435,-0.498786,-1.541584,0.052370,-0.010828,0.082445,1.000000,0.000032,-0.000003,-0.000027,1.000000,0.000086,0.000342,0.000339,0.009871,0.039196,0.038887,1.000000,0.000679,-0.000684,-0.000679,1.000000,0.000172,0.000684,-0.000172,1.000000
08938,5.244990,-1.105407,8.268224,-0.005386,-0.014340,0.040999,0.006494,-0.007295,-0.002442,0.812336,-0.497184,-1.549029,0.052447,-0.011057,0.082684,1.000000,0.000032,-0.000036,-0.000012,1.000000,0.000083,0.000313,0.000334,0.009514,0.035898,0.038239,1.000000,0.000667,-0.000627,-0.000667,1.000000,0.000166,0.000627,-0.000166,1.000000
08939,5.217220,-1.070195,8.236406,-0.009829,0.016303,-0.004388,0.006953,0.001149,-0.006223,0.821656,-0.498390,-1.547331,0.052172,-0.010706,0.082363,1.000000,0.000035,0.000006,-0.000031,1.000000,0.000096,0.000324,0.000320,0.010964,0.037071,0.036649,1.000000,0.000640,-0.000647,-0.000640,1.000000,0.000191,0.000647,-0.000191,1.000000
08940,5.227474,-1.073896,8.203740,0.015836,0.008210,-0.025922,0.005778,-0.002732,-0.007018,0.816688,-0.507879,-1.547234,0.052273,-0.010743,0.082038,1.000000,0.000029,-0.000014,-0.000035,1.000000,0.000102,0.000313,0.000289,0.011684,0.035865,0.033070,1.000000,0.000577,-0.000626,-0.000577,1.000000,0.000204,0.000626,-0.000204,1.000000
08941,5.282101,-1.082913,8.276443,0.022735,0.008667,0.065177,0.007108,-0.005520,-0.003201,0.818679,-0.498042,-1.541694,0.052819,-0.010833,0.082766,1.000000,0.000036,-0.000028,-0.000016,1.000000,0.000105,0.000292,0.000291,0.012028,0.033477,0.033401,1.000000,0.000583,-0.000584,-0.000583,1.000000,0.000210,0.000584,-0.000210,1.000000
08942,5.218158,-1.067731,8.236132,-0.009341,0.018324,-0.004392,0.006749,-0.003239,-0.005489,0.819169,-0.512108,-1.543844,0.052180,-0.010682,0.082362,1.000000,0.000034,-0.000016,-0.000027,1.000000,0.000113,0.000281,0.000278,0.012980,0.032219,0.031818,1.000000,0.000555,-0.000562,-0.000555,1.000000,0.000227,0.000562,-0.000226,1.000000
08943,5.218414,-1.066843,8.236085,-0.009172,0.018983,-0.004393,0.007362,-0.001464,-0.006249,0.821327,-0.508417,-1.538112,0.052183,-0.010673,0.082361,1.000000,0.000037,-0.000007,-0.000031,1.000000,0.000127,0.000278,0.000266,0.014532,0.031906,0.030506,1.000000,0.000532,-0.000557,-0.000532,1.000000,0.000254,0.000557,-0.000253,1.000000
08944,5.255023,-1.045957,8.244394,0.018667,0.040570,0.019776,0.007108,-0.005521,-0.003200,0.822657,-0.503102,-1.544799,0.052548,-0.010463,0.082445,1.000000,0.000036,-0.000028,-0.000016,1.000000,0.000132,0.000259,0.000273,0.015191,0.029719,0.031273,1.000000,0.000546,-0.000519,-0.000546,1.000000,0.000265,0.000519,-0.000265,1.000000
08945,5.236904,-1.093628,8.226982,0.008853,-0.008969,0.000786,0.007057,-0.005191,-0.000884,0.823063,-0.504815,-1.542238,0.052367,-0.010939,0.082271,1.000000,0.000035,-0.000026,-0.000004,1.000000,0.000129,0.000242,0.000285,0.014822,0.027691,0.032681,1.000000,0.000570,-0.000483,-0.000570,1.000000,0.000259,0.000483,-0.000258,1.000000
08946,5.216803,-1.082332,8.218964,-0.003415,0.001229,-0.017901,0.005114,-0.004180,-0.003939,0.814271,-0.508623,-1.546604,0.052166,-0.010826,0.082190,1.000000,0.000026,-0.000021,-0.000020,1.000000,0.000127,0.000229,0.000269,0.014532,0.026240,0.030851,1.000000,0.000538,-0.000458,-0.000538,1.000000,0.000254,0.000458,-0.000253,1.000000
08947,5.253377,-1.061676,8.227258,0.024392,0.022872,0.006263,0.006647,-0.002580,-0.000856,0.818740,-0.499298,-1.544079,0.052533,-0.010620,0.082273,1.000000,0.000033,-0.000013,-0.000004,1.000000,0.000123,0.000224,0.000279,0.014060,0.025698,0.031982,1.000000,0.000558,-0.000449,-0.000558,1.000000,0.000245,0.000449,-0.000245,1.000000
08948,5.258369,-1.102405,8.234467,0.021865,-0.016550,0.019475,0.005727,-0.002405,-0.004700,0.816107,-0.501454,-1.551806,0.052582,-0.011028,0.082345,1.000000,0.000029,-0.000012,-0.000023,1.000000,0.000125,0.000217,0.000268,0.014329,0.024911,0.030766,1.000000,0.000537,-0.000435,-0.000537,1.000000,0.000250,0.000435,-0.000250,1.000000
08949,5.240876,-1.073431,8.243217,0.004383,0.013328,0.014289,0.003732,-0.001064,-0.005440,0.809180,-0.513486,-1.542649,0.052408,-0.010737,0.082432,1.000000,0.000019,-0.000005,-0.000027,1.000000,0.000121,0.000217,0.000250,0.013891,0.024886,0.028707,1.000000,0.000501,-0.000434,-0.000501,1.000000,0.000242,0.000434,-0.000242,1.000000
08950,5.241125,-1.072713,8.243152,0.004512,0.013970,0.014288,0.007721,-0.003747,-0.003959,0.814681,-0.503860,-1.550001,0.052409,-0.010731,0.082432,1.000000,0.000039,-0.000019,-0.000020,1.000000,0.000130,0.000203,0.000260,0.014942,0.023214,0.029762,1.000000,0.000519,-0.000405,-0.000519,1.000000,0.000261,0.000405,-0.000261,1.000000
08951,5.241291,-1.072012,8.243137,0.004682,0.014630,0.014287,0.005266,0.000537,-0.002357,0.818838,-0.505623,-1.543320,0.052413,-0.010723,0.082431,1.000000,0.000026,0.000003,-0.000012,1.000000,0.000125,0.000212,0.000258,0.014379,0.024330,0.029552,1.000000,0.000516,-0.000425,-0.000516,1.000000,0.000251,0.000425,-0.000251,1.000000
08952,5.262008,-1.082253,8.250904,0.017317,0.005744,0.032976,0.004400,-0.005295,0.001454,0.816517,-0.508463,-1.543757,0.052618,-0.010824,0.082510,1.000000,0.000022,-0.000026,0.000007,1.000000,0.000105,0.000195,0.000272,0.012038,0.022353,0.031168,1.000000,0.000544,-0.000390,-0.000544,1.000000,0.000210,0.000390,-0.000210,1.000000
08953,5.218582,-1.078126,8.218388,-0.002296,0.005811,-0.017903,0.007058,-0.005192,-0.000882,0.813734,-0.502161,-1.539801,0.052184,-0.010784,0.082185,1.000000,0.000035,-0.000026,-0.000004,1.000000,0.000102,0.000177,0.000284,0.011668,0.020325,0.032578,1.000000,0.000569,-0.000355,-0.000569,1.000000,0.000204,0.000355,-0.000203,1.000000
08954,5.259931,-1.098841,8.233945,0.022825,-0.012628,0.019479,0.005676,-0.002076,-0.002383,0.822357,-0.504957,-1.546154,0.052598,-0.010991,0.082340,1.000000,0.000028,-0.000010,-0.000012,1.000000,0.000099,0.000174,0.000286,0.011320,0.019936,0.032813,1.000000,0.000573,-0.000348,-0.000573,1.000000,0.000198,0.000348,-0.000197,1.000000
08955,5.226618,-1.100775,8.242156,-0.009821,-0.013286,0.008825,0.004602,-0.000908,0.000720,0.814217,-0.504865,-1.546060,0.052266,-0.011009,0.082422,1.000000,0.000023,-0.000005,0.000004,1.000000,0.000082,0.000179,0.000296,0.009446,0.020462,0.033971,1.000000,0.000593,-0.000357,-0.000593,1.000000,0.000165,0.000357,-0.000165,1.000000
08956,5.216349,-1.094245,8.201593,0.003380,-0.011920,-0.031397,0.006648,-0.002581,-0.000855,0.804599,-0.508673,-1.550947,0.052162,-0.010945,0.082016,1.000000,0.000033,-0.000013,-0.000004,1.000000,0.000079,0.000174,0.000304,0.009023,0.019932,0.034806,1.000000,0.000607,-0.000348,-0.000607,1.000000,0.000157,0.000348,-0.000157,1.000000
08957,5.263184,-1.079610,8.250500,0.018163,0.009024,0.032972,0.007260,-0.000806,-0.001616,0.804103,-0.499224,-1.546040,0.052631,-0.010800,0.082505,1.000000,0.000036,-0.000004,-0.000008,1.000000,0.000080,0.000178,0.000311,0.009149,0.020340,0.035647,1.000000,0.000622,-0.000355,-0.000622,1.000000,0.000160,0.000355,-0.000159,1.000000
08958,5.260513,-1.096632,8.233868,0.023405,-0.009985,0.019481,0.006648,-0.002581,-0.000855,0.820921,-0.506939,-1.549370,0.052604,-0.010969,0.082339,1.000000,0.000033,-0.000013,-0.000004,1.000000,0.000075,0.000168,0.000333,0.008623,0.019222,0.038185,1.000000,0.000666,-0.000335,-0.000666,1.000000,0.000150,0.000336,-0.000150,1.000000
08959,5.240110,-1.085399,8.226030,0.011095,0.000209,0.000788,0.006237,0.000030,-0.000829,0.820741,-0.507911,-1.544965,0.052401,-0.010857,0.082260,1.000000,0.000031,0.000000,-0.000004,1.000000,0.000070,0.000176,0.000341,0.008048,0.020164,0.039039,1.000000,0.000681,-0.000352,-0.000681,1.000000,0.000140,0.000352,-0.000140,1.000000
08960,5.247716,-1.108386,8.250035,0.003424,-0.019539,0.027523,0.008896,0.000132,-0.003165,0.820276,-0.507825,-1.551094,0.052477,-0.011088,0.082500,1.000000,0.000044,0.000001,-0.000016,1.000000,0.000084,0.000184,0.000344,0.009607,0.021095,0.039452,1.000000,0.000689,-0.000368,-0.000689,1.000000,0.000168,0.000368,-0.000167,1.000000
08961,5.224468,-1.114540,8.225634,-0.003717,-0.029030,-0.004657,0.008283,-0.001644,-0.002403,0.805690,-0.505723,-1.548100,0.052244,-0.011149,0.082256,1.000000,0.000041,-0.000008,-0.000012,1.000000,0.000091,0.000183,0.000351,0.010434,0.020968,0.040281,1.000000,0.000703,-0.000366,-0.000703,1.000000,0.000182,0.000366,-0.000182,1.000000
08962,5.240421,-1.083120,8.226132,0.011576,0.002156,0.000787,0.007620,-0.003087,0.000675,0.821243,-0.511976,-1.545760,0.052403,-0.010834,0.082262,1.000000,0.000038,-0.000015,0.000003,1.000000,0.000087,0.000175,0.000377,0.010002,0.020001,0.043209,1.000000,0.000754,-0.000349,-0.000754,1.000000,0.000175,0.000349,-0.000174,1.000000
08963,5.240493,-1.082438,8.226177,0.011745,0.002816,0.000787,0.005929,0.001977,-0.005434,0.817760,-0.500686,-1.543898,0.052405,-0.010828,0.082261,1.000000,0.000030,0.000010,-0.000027,1.000000,0.000094,0.000189,0.000363,0.010750,0.021704,0.041632,1.000000,0.000727,-0.000379,-0.000727,1.000000,0.000188,0.000379,-0.000187,1.000000
08964,5.237686,-1.099317,8.209660,0.017099,-0.016230,-0.012697,0.007311,-0.001140,-0.003930,0.815610,-0.503476,-1.545981,0.052376,-0.010997,0.082096,1.000000,0.000037,-0.000006,-0.000020,1.000000,0.000102,0.000191,0.000359,0.011702,0.021850,0.041184,1.000000,0.000719,-0.000381,-0.000719,1.000000,0.000204,0.000381,-0.000204,1.000000
08965,5.243411,-1.063126,8.242940,0.006931,0.023802,0.014268,0.008896,0.000130,-0.003163,0.811101,-0.503783,-1.549358,0.052434,-0.010636,0.082429,1.000000,0.000044,0.000001,-0.000016,1.000000,0.000114,0.000198,0.000364,0.013127,0.022674,0.041722,1.000000,0.000728,-0.000396,-0.000728,1.000000,0.000229,0.000396,-0.000229,1.000000
08966,5.230536,-1.075216,8.259117,-0.013271,0.013620,0.022314,0.008947,-0.000203,-0.005478,0.816666,-0.499408,-1.548572,0.052305,-0.010757,0.082591,1.000000,0.000045,-0.000001,-0.000027,1.000000,0.000133,0.000200,0.000359,0.015227,0.022931,0.041189,1.000000,0.000719,-0.000400,-0.000719,1.000000,0.000266,0.000400,-0.000265,1.000000
08967,5.261295,-1.089676,8.234292,0.024882,-0.004084,0.019481,0.005676,-0.002079,-0.002381,0.815017,-0.504938,-1.552823,0.052612,-0.010900,0.082343,1.000000,0.000028,-0.000010,-0.000012,1.000000,0.000129,0.000197,0.000360,0.014766,0.022559,0.041259,1.000000,0.000720,-0.000394,-0.000720,1.000000,0.000258,0.000394,-0.000257,1.000000
08968,5.227902,-1.091118,8.242625,-0.007796,-0.004726,0.008834,0.012166,0.002004,-0.006260,0.824177,-0.512149,-1.547668,0.052280,-0.010918,0.082425,1.000000,0.000061,0.000010,-0.000031,1.000000,0.000163,0.000210,0.000355,0.018668,0.024041,0.040629,1.000000,0.000709,-0.000420,-0.000709,1.000000,0.000326,0.000420,-0.000326,1.000000
08969,5.240874,-1.077107,8.226633,0.012710,0.006780,0.000783,0.005676,-0.002079,-0.002380,0.812515,-0.507961,-1.548396,0.052408,-0.010774,0.082267,1.000000,0.000028,-0.000010,-0.000012,1.000000,0.000159,0.000207,0.000355,0.018206,0.023668,0.040700,1.000000,0.000710,-0.000413,-0.000710,1.000000,0.000318,0.000413,-0.000317,1.000000
08970,5.238089,-1.094102,8.210099,0.018044,-0.012285,-0.012693,0.004956,0.002479,-0.006961,0.818716,-0.503600,-1.549535,0.052382,-0.010945,0.082100,1.000000,0.000025,0.000012,-0.000035,1.000000,0.000167,0.000223,0.000338,0.019160,0.025538,0.038719,1.000000,0.000676,-0.000446,-0.000676,1.000000,0.000334,0.000446,-0.000334,1.000000
08971,5.240804,-1.075653,8.226868,0.013047,0.008066,0.000782,0.006901,0.001470,-0.003904,0.808650,-0.505545,-1.546844,0.052408,-0.010760,0.082268,1.000000,0.000035,0.000007,-0.000020,1.000000,0.000174,0.000236,0.000333,0.019895,0.027067,0.038206,1.000000,0.000667,-0.000472,-0.000667,1.000000,0.000347,0.000473,-0.000347,1.000000
08972,5.240794,-1.074926,8.226970,0.013181,0.008728,0.000781,0.006289,-0.000305,-0.003141,0.809414,-0.503221,-1.547598,0.052408,-0.010753,0.082269,1.000000,0.000031,-0.000002,-0.000016,1.000000,0.000175,0.000240,0.000333,0.020018,0.027445,0.038116,1.000000,0.000665,-0.000479,-0.000665,1.000000,0.000349,0.000479,-0.000349,1.000000
08973,5.261294,-1.084838,8.234931,0.025831,-0.000131,0.019480,0.005929,0.001974,-0.005432,0.822340,-0.505989,-1.546586,0.052613,-0.010852,0.082348,1.000000,0.000030,0.000010,-0.000027,1.000000,0.000181,0.000254,0.000319,0.020765,0.029146,0.036541,1.000000,0.000638,-0.000509,-0.000638,1.000000,0.000362,0.000509,-0.000362,1.000000
08974,5.227786,-1.086411,8.243320,-0.006835,-0.000797,0.008836,0.006952,0.001136,-0.006218,0.811722,-0.505641,-1.545765,0.052278,-0.010869,0.082433,1.000000,0.000035,0.000006,-0.000031,1.000000,0.000194,0.000264,0.000304,0.022219,0.030216,0.034825,1.000000,0.000608,-0.000527,-0.000608,1.000000,0.000388,0.000528,-0.000387,1.000000
08975,5.225717,-1.026589,8.252728,-0.009139,0.059614,0.009017,0.005878,0.002307,-0.003117,0.822818,-0.498444,-1.540477,0.052258,-0.010269,0.082526,1.000000,0.000029,0.000012,-0.000016,1.000000,0.000194,0.000282,0.000299,0.022254,0.032280,0.034326,1.000000,0.000599,-0.000563,-0.000599,1.000000,0.000388,0.000564,-0.000388,1.000000
08976,5.250552,-1.076581,8.194894,0.039345,0.002512,-0.020749,0.004906,0.002810,-0.004645,0.812177,-0.503723,-1.543740,0.052506,-0.010769,0.081948,1.000000,0.000025,0.000014,-0.000023,1.000000,0.000194,0.000302,0.000279,0.022272,0.034544,0.031935,1.000000,0.000557,-0.000603,-0.000557,1.000000,0.000389,0.000603,-0.000388,1.000000
08977,5.227294,-1.084406,8.243897,-0.006323,0.001189,0.008836,0.002910,0.004152,-0.005387,0.821575,-0.505431,-1.539878,0.052274,-0.010847,0.082438,1.000000,0.000015,0.000021,-0.000027,1.000000,0.000189,0.000327,0.000256,0.021629,0.037486,0.029321,1.000000,0.000512,-0.000654,-0.000512,1.000000,0.000378,0.000654,-0.000377,1.000000
08978,5.226967,-1.083777,8.244186,-0.006148,0.001836,0.008836,0.003573,0.005592,-0.008464,0.819859,-0.501760,-1.549975,0.052272,-0.010841,0.082440,1.000000,0.000018,0.000028,-0.000042,1.000000,0.000195,0.000358,0.000219,0.022374,0.041053,0.025099,1.000000,0.000438,-0.000717,-0.000438,1.000000,0.000390,0.000717,-0.000390,1.000000
