// General information: 
//  MT Manager version: 2020.5.0 
//  XDA version: 2020.5.0 build 5678 rev 108182 built on 2021-02-04
// Device information: 
//  DeviceId: 00B46A08
//  ProductCode: MTW2-3A7G6
//  Firmware Version: 4.4.0
//  Hardware Version: 2.0.0
// Device settings: 
//  Filter Profile: human(46.1)
//  Option Flags: Orientation Smoother Disabled, Position/Velocity Smoother Disabled, Continuous Zero Rotation Update Disabled, AHS Disabled, ICC Disabled
// Coordinate system: ENU
PacketCounter,Acc_X,Acc_Y,Acc_Z,FreeAcc_E,FreeAcc_N,FreeAcc_U,Gyr_X,Gyr_Y,Gyr_Z,Mag_X,Mag_Y,Mag_Z,VelInc_X,VelInc_Y,VelInc_Z,OriInc_q0,OriInc_q1,OriInc_q2,OriInc_q3,Quat_q0,Quat_q1,Quat_q2,Quat_q3,Roll,Pitch,Yaw,Mat[1][1],Mat[2][1],Mat[3][1],Mat[1][2],Mat[2][2],Mat[3][2],Mat[1][3],Mat[2][3],Mat[3][3]
08622,9.467429,-0.589498,2.686554,-0.034811,-0.038599,0.046044,-0.016370,-0.002065,0.014379,0.394189,-0.353230,-0.811503,0.094674,-0.005886,0.026867,1.000000,-0.000082,-0.000010,0.000072,0.999989,0.003523,-0.002290,0.002194,0.403186,-0.263259,0.250516,0.999980,0.004372,0.004595,-0.004405,0.999966,0.007037,-0.004564,-0.007057,0.999965
08623,9.479974,-0.604823,2.615679,0.031998,-0.067624,0.039820,-0.011869,0.003751,0.016919,0.395472,-0.344776,-0.804248,0.094801,-0.006039,0.026155,1.000000,-0.000059,0.000019,0.000085,0.999989,0.003445,-0.002266,0.002173,0.394180,-0.260468,0.248104,0.999980,0.004330,0.004546,-0.004361,0.999967,0.006880,-0.004516,-0.006899,0.999966
08624,9.467496,-0.578390,2.667252,-0.013825,-0.029009,0.040293,-0.006430,0.002428,0.013132,0.399535,-0.340862,-0.803399,0.094676,-0.005777,0.026672,1.000000,-0.000032,0.000012,0.000066,0.999989,0.003384,-0.002253,0.002165,0.387217,-0.259033,0.247176,0.999980,0.004314,0.004521,-0.004344,0.999968,0.006758,-0.004492,-0.006778,0.999967
08625,9.483198,-0.580420,2.636555,0.018923,-0.036656,0.047214,-0.005648,-0.001648,0.012901,0.395641,-0.340622,-0.805315,0.094832,-0.005797,0.026366,1.000000,-0.000028,-0.000008,0.000065,0.999990,0.003324,-0.002259,0.002159,0.380345,-0.259728,0.246569,0.999980,0.004303,0.004533,-0.004333,0.999969,0.006638,-0.004504,-0.006658,0.999968
08626,9.483847,-0.552442,2.597439,0.061692,-0.016821,0.035721,-0.005620,0.001367,0.011393,0.387308,-0.341273,-0.797544,0.094839,-0.005518,0.025974,1.000000,-0.000028,0.000007,0.000057,0.999990,0.003271,-0.002254,0.002153,0.374311,-0.259111,0.245847,0.999981,0.004291,0.004522,-0.004320,0.999969,0.006533,-0.004494,-0.006552,0.999968
08627,9.486852,-0.540752,2.637833,0.027316,0.004307,0.048863,-0.001785,0.003673,0.010331,0.395034,-0.343018,-0.801832,0.094869,-0.005402,0.026377,1.000000,-0.000009,0.000018,0.000052,0.999990,0.003234,-0.002240,0.002167,0.370034,-0.257493,0.247495,0.999981,0.004320,0.004494,-0.004349,0.999970,0.006458,-0.004466,-0.006478,0.999969
08628,9.486345,-0.556507,2.657659,0.005512,-0.005818,0.054608,-0.001068,0.002635,0.012394,0.393756,-0.337345,-0.803748,0.094864,-0.005559,0.026575,1.000000,-0.000005,0.000013,0.000062,0.999990,0.003184,-0.002228,0.002183,0.364340,-0.256056,0.249392,0.999981,0.004353,0.004469,-0.004381,0.999970,0.006359,-0.004441,-0.006378,0.999970
08629,9.486625,-0.542932,2.638201,0.026757,0.003992,0.048865,0.002803,-0.001113,0.010546,0.394650,-0.340419,-0.801720,0.094866,-0.005425,0.026382,1.000000,0.000014,-0.000006,0.000053,0.999990,0.003147,-0.002235,0.002216,0.360007,-0.256960,0.253160,0.999980,0.004418,0.004485,-0.004447,0.999970,0.006283,-0.004457,-0.006303,0.999970
08630,9.505127,-0.546448,2.667194,0.003872,0.007734,0.074673,-0.001812,0.000657,0.011840,0.394847,-0.340602,-0.799997,0.095052,-0.005459,0.026672,1.000000,-0.000009,0.000003,0.000059,0.999990,0.003096,-0.002233,0.002229,0.354247,-0.256696,0.254626,0.999980,0.004444,0.004480,-0.004472,0.999971,0.006183,-0.004453,-0.006203,0.999971
08631,9.470984,-0.529917,2.649686,0.014744,0.021099,0.036197,0.000424,0.006591,0.013503,0.392238,-0.341661,-0.798219,0.094711,-0.005293,0.026494,1.000000,0.000002,0.000033,0.000068,0.999990,0.003050,-0.002199,0.002252,0.348987,-0.252820,0.257303,0.999980,0.004491,0.004413,-0.004518,0.999971,0.006091,-0.004385,-0.006111,0.999972
08632,9.470683,-0.531089,2.650527,0.014464,0.020961,0.036198,0.002736,0.010994,0.012118,0.393097,-0.332167,-0.811185,0.094709,-0.005306,0.026500,1.000000,0.000014,0.000055,0.000061,0.999991,0.003016,-0.002147,0.002284,0.345080,-0.246762,0.260975,0.999980,0.004555,0.004307,-0.004581,0.999971,0.006023,-0.004279,-0.006042,0.999973
08633,9.489290,-0.519929,2.660944,0.013070,0.034693,0.056264,0.001261,0.008546,0.010255,0.394599,-0.339616,-0.808825,0.094894,-0.005195,0.026605,1.000000,0.000006,0.000043,0.000051,0.999991,0.002986,-0.002109,0.002304,0.341615,-0.242492,0.263291,0.999980,0.004595,0.004232,-0.004620,0.999972,0.005962,-0.004205,-0.005982,0.999973
08634,9.470119,-0.533234,2.652113,0.013874,0.020688,0.036200,0.000410,0.005081,0.014258,0.403806,-0.343884,-0.800575,0.094702,-0.005326,0.026519,1.000000,0.000002,0.000025,0.000071,0.999991,0.002932,-0.002083,0.002329,0.335458,-0.239454,0.266213,0.999980,0.004646,0.004179,-0.004671,0.999972,0.005855,-0.004152,-0.005874,0.999974
08635,9.488779,-0.522445,2.662271,0.012553,0.034364,0.056265,0.001902,0.009036,0.015368,0.385649,-0.329306,-0.804181,0.094889,-0.005217,0.026618,1.000000,0.000010,0.000045,0.000077,0.999991,0.002882,-0.002034,0.002357,0.329733,-0.233821,0.269457,0.999981,0.004703,0.004081,-0.004726,0.999972,0.005755,-0.004054,-0.005774,0.999975
08636,9.484184,-0.580648,2.681519,-0.018222,-0.017054,0.060347,-0.001919,0.008239,0.015675,0.394784,-0.337675,-0.805319,0.094843,-0.005799,0.026811,1.000000,-0.000010,0.000041,0.000078,0.999991,0.002822,-0.001990,0.002372,0.322841,-0.228829,0.271215,0.999981,0.004734,0.003994,-0.004756,0.999973,0.005635,-0.003967,-0.005653,0.999976
08637,9.503563,-0.540835,2.652754,0.023398,0.016690,0.068936,-0.004995,0.009419,0.016537,0.394748,-0.339523,-0.803020,0.095037,-0.005400,0.026523,1.000000,-0.000025,0.000047,0.000083,0.999992,0.002753,-0.001943,0.002370,0.314919,-0.223428,0.270927,0.999981,0.004729,0.003900,-0.004750,0.999974,0.005496,-0.003873,-0.005515,0.999977
08638,9.487013,-0.556432,2.703892,-0.031401,0.014007,0.067742,-0.005709,0.010457,0.014474,0.391910,-0.339155,-0.803209,0.094872,-0.005557,0.027034,1.000000,-0.000029,0.000052,0.000072,0.999992,0.002695,-0.001890,0.002364,0.308347,-0.217340,0.270337,0.999982,0.004718,0.003793,-0.004739,0.999974,0.005382,-0.003768,-0.005399,0.999978
08639,9.487430,-0.528619,2.665858,0.011354,0.033814,0.056269,-0.010231,0.012208,0.011964,0.398827,-0.344230,-0.807515,0.094876,-0.005279,0.026653,1.000000,-0.000051,0.000061,0.000060,0.999992,0.002647,-0.001832,0.002334,0.302825,-0.210678,0.266909,0.999982,0.004658,0.003677,-0.004678,0.999975,0.005285,-0.003652,-0.005302,0.999979
08640,9.452331,-0.541608,2.688008,-0.020832,0.027256,0.029270,-0.005723,0.008947,0.015230,0.398078,-0.338757,-0.802974,0.094525,-0.005408,0.026876,1.000000,-0.000029,0.000045,0.000076,0.999992,0.002584,-0.001786,0.002330,0.295658,-0.205337,0.266479,0.999983,0.004651,0.003584,-0.004669,0.999976,0.005160,-0.003560,-0.005177,0.999980
08641,9.467441,-0.558237,2.677643,-0.009615,0.009630,0.041939,-0.013168,0.008823,0.007481,0.389911,-0.339355,-0.805424,0.094676,-0.005577,0.026773,1.000000,-0.000066,0.000044,0.000037,0.999993,0.002550,-0.001747,0.002277,0.291753,-0.200878,0.260443,0.999984,0.004546,0.003506,-0.004563,0.999977,0.005092,-0.003483,-0.005108,0.999981
08642,9.451752,-0.544254,2.689512,-0.021362,0.026927,0.029270,-0.014812,0.007925,0.012470,0.405569,-0.346027,-0.804395,0.094519,-0.005435,0.026892,1.000000,-0.000074,0.000040,0.000062,0.999993,0.002487,-0.001709,0.002226,0.284499,-0.196437,0.254614,0.999984,0.004444,0.003428,-0.004461,0.999978,0.004965,-0.003406,-0.004981,0.999982
08643,9.473917,-0.506064,2.720418,-0.035269,0.071884,0.056733,-0.010167,0.009168,0.009670,0.390103,-0.338439,-0.798359,0.094741,-0.005055,0.027200,1.000000,-0.000051,0.000046,0.000048,0.999993,0.002447,-0.001666,0.002194,0.280030,-0.191553,0.250946,0.999985,0.004380,0.003343,-0.004396,0.999978,0.004887,-0.003322,-0.004902,0.999982
08644,9.470539,-0.520012,2.680951,-0.001465,0.050437,0.043603,-0.013182,0.007313,0.008236,0.391643,-0.345412,-0.796265,0.094707,-0.005194,0.026806,1.000000,-0.000066,0.000037,0.000041,0.999993,0.002405,-0.001635,0.002145,0.275228,-0.188003,0.245369,0.999985,0.004282,0.003281,-0.004298,0.999979,0.004804,-0.003261,-0.004818,0.999983
08645,9.454568,-0.520398,2.711944,-0.034751,0.057650,0.036667,-0.016153,0.000914,0.005259,0.396472,-0.337951,-0.803777,0.094546,-0.005199,0.027119,1.000000,-0.000081,0.000005,0.000026,0.999994,0.002371,-0.001640,0.002090,0.271296,-0.188478,0.239014,0.999986,0.004172,0.003290,-0.004187,0.999980,0.004735,-0.003270,-0.004749,0.999983
08646,9.504348,-0.539769,2.698851,-0.013189,0.036501,0.082073,-0.016125,-0.005139,0.004470,0.391043,-0.343839,-0.804991,0.095043,-0.005393,0.026991,1.000000,-0.000081,-0.000026,0.000022,0.999994,0.002329,-0.001674,0.002025,0.266502,-0.192358,0.231645,0.999986,0.004043,0.003357,-0.004059,0.999981,0.004651,-0.003338,-0.004665,0.999984
08647,9.485557,-0.552608,2.688691,-0.012397,0.022446,0.062006,-0.016049,-0.006666,0.001420,0.392106,-0.338569,-0.801232,0.094855,-0.005523,0.026891,1.000000,-0.000080,-0.000033,0.000007,0.999994,0.002303,-0.001720,0.001962,0.263477,-0.197609,0.224404,0.999986,0.003917,0.003449,-0.003932,0.999982,0.004599,-0.003431,-0.004612,0.999983
08648,9.520681,-0.527235,2.648030,0.040747,0.038720,0.083284,-0.019967,0.009185,0.004850,0.392903,-0.337911,-0.799939,0.095208,-0.005267,0.026476,1.000000,-0.000100,0.000046,0.000024,0.999994,0.002269,-0.001684,0.001876,0.259650,-0.193433,0.214501,0.999987,0.003744,0.003376,-0.003759,0.999983,0.004532,-0.003359,-0.004544,0.999984
08649,9.431973,-0.563496,2.681505,-0.022250,0.011838,0.009201,-0.020804,0.007225,0.008098,0.393006,-0.340692,-0.799969,0.094321,-0.005628,0.026812,1.000000,-0.000104,0.000036,0.000040,0.999995,0.002219,-0.001654,0.001793,0.253959,-0.190027,0.204997,0.999988,0.003578,0.003317,-0.003593,0.999984,0.004432,-0.003301,-0.004444,0.999985
08650,9.466224,-0.567638,2.679969,-0.012158,0.008124,0.041938,-0.016821,-0.002592,0.001653,0.392398,-0.336318,-0.800300,0.094662,-0.005673,0.026801,1.000000,-0.000084,-0.000013,0.000008,0.999995,0.002192,-0.001679,0.001720,0.250882,-0.192848,0.196719,0.999988,0.003433,0.003366,-0.003448,0.999984,0.004379,-0.003351,-0.004390,0.999985
08651,9.554294,-0.547709,2.666466,0.028720,0.024638,0.121754,-0.012983,-0.000288,0.000595,0.396922,-0.339616,-0.800857,0.095543,-0.005475,0.026665,1.000000,-0.000065,-0.000001,0.000003,0.999995,0.002181,-0.001695,0.001668,0.249565,-0.194599,0.190666,0.999989,0.003328,0.003396,-0.003343,0.999985,0.004356,-0.003382,-0.004367,0.999985
08652,9.500528,-0.571593,2.678284,-0.002359,0.004220,0.074675,-0.010650,0.005624,-0.001538,0.404472,-0.338083,-0.797718,0.095006,-0.005715,0.026780,1.000000,-0.000053,0.000028,-0.000008,0.999995,0.002186,-0.001683,0.001618,0.250199,-0.193258,0.185005,0.999989,0.003229,0.003373,-0.003244,0.999985,0.004367,-0.003359,-0.004378,0.999985
08653,9.500002,-0.586355,2.698141,-0.024089,-0.005977,0.080401,-0.009860,0.003057,-0.002526,0.399045,-0.342930,-0.806053,0.095000,-0.005863,0.026980,1.000000,-0.000049,0.000015,-0.000013,0.999995,0.002198,-0.001681,0.001565,0.251529,-0.193040,0.178890,0.999989,0.003122,0.003369,-0.003137,0.999985,0.004390,-0.003355,-0.004401,0.999985
08654,9.496782,-0.599212,2.658310,0.009721,-0.027416,0.067276,-0.009919,0.006090,-0.000227,0.397243,-0.339122,-0.803747,0.094969,-0.005991,0.026581,1.000000,-0.000050,0.000030,-0.000001,0.999995,0.002198,-0.001666,0.001521,0.251634,-0.191271,0.173822,0.999990,0.003034,0.003338,-0.003048,0.999986,0.004392,-0.003325,-0.004402,0.999985
08655,9.515047,-0.601945,2.688174,-0.013163,-0.023751,0.093069,-0.006855,0.012470,-0.001049,0.394055,-0.338334,-0.806378,0.095152,-0.006019,0.026876,1.000000,-0.000034,0.000062,-0.000005,0.999995,0.002217,-0.001619,0.001488,0.253801,-0.185938,0.170074,0.999990,0.002968,0.003245,-0.002983,0.999986,0.004430,-0.003232,-0.004439,0.999985
08656,9.461915,-0.596441,2.661734,-0.001184,-0.024174,0.034537,-0.006173,0.008411,0.002519,0.393015,-0.334674,-0.807601,0.094620,-0.005962,0.026614,1.000000,-0.000031,0.000042,0.000013,0.999995,0.002213,-0.001590,0.001465,0.253314,-0.182530,0.167418,0.999991,0.002922,0.003186,-0.002936,0.999986,0.004421,-0.003173,-0.004430,0.999985
08657,9.465163,-0.569256,2.683373,-0.014075,0.006981,0.041936,-0.003050,0.011757,-0.000601,0.402531,-0.341724,-0.798677,0.094653,-0.005692,0.026828,1.000000,-0.000015,0.000059,-0.000003,0.999995,0.002231,-0.001549,0.001451,0.255422,-0.177922,0.165849,0.999991,0.002895,0.003105,-0.002908,0.999986,0.004458,-0.003092,-0.004467,0.999985
08658,9.449494,-0.554219,2.695404,-0.025820,0.024280,0.029266,-0.006189,0.006902,0.003271,0.393733,-0.332661,-0.805013,0.094496,-0.005540,0.026951,1.000000,-0.000031,0.000035,0.000016,0.999995,0.002222,-0.001526,0.001429,0.254342,-0.175259,0.163353,0.999991,0.002851,0.003059,-0.002865,0.999986,0.004439,-0.003046,-0.004448,0.999985
08659,9.465097,-0.555235,2.665494,0.006922,0.016669,0.036215,-0.003889,0.009796,0.002646,0.386560,-0.338785,-0.800378,0.094652,-0.005551,0.026650,1.000000,-0.000019,0.000049,0.000013,0.999995,0.002223,-0.001488,0.001411,0.254509,-0.170898,0.161311,0.999992,0.002815,0.002983,-0.002829,0.999986,0.004442,-0.002970,-0.004450,0.999986
08660,9.452548,-0.527691,2.717572,-0.038917,0.055266,0.036665,-0.006206,0.005392,0.004024,0.392632,-0.334654,-0.800877,0.094526,-0.005274,0.027173,1.000000,-0.000031,0.000027,0.000020,0.999996,0.002208,-0.001472,0.001391,0.252834,-0.168982,0.158975,0.999992,0.002775,0.002949,-0.002788,0.999986,0.004413,-0.002937,-0.004421,0.999986
08661,9.468211,-0.528779,2.687451,-0.006260,0.047657,0.043615,-0.010723,0.007146,0.001513,0.391611,-0.336356,-0.807445,0.094683,-0.005286,0.026871,1.000000,-0.000054,0.000036,0.000008,0.999996,0.002203,-0.001452,0.001350,0.252183,-0.166710,0.154349,0.999992,0.002694,0.002910,-0.002707,0.999987,0.004401,-0.002898,-0.004409,0.999986
08662,9.482968,-0.559141,2.696461,-0.016601,0.020083,0.062005,-0.012972,0.008777,-0.000118,0.395345,-0.330540,-0.809297,0.094831,-0.005590,0.026961,1.000000,-0.000065,0.000044,-0.000001,0.999996,0.002202,-0.001423,0.001291,0.252075,-0.163420,0.147528,0.999993,0.002575,0.002852,-0.002587,0.999987,0.004400,-0.002841,-0.004407,0.999986
08663,9.444377,-0.598663,2.697750,-0.036254,-0.017734,0.027581,-0.015390,0.011946,0.005107,0.395857,-0.333760,-0.803089,0.094446,-0.005982,0.026972,1.000000,-0.000077,0.000060,0.000026,0.999996,0.002174,-0.001376,0.001222,0.248981,-0.158017,0.139632,0.999993,0.002437,0.002758,-0.002449,0.999988,0.004346,-0.002747,-0.004352,0.999987
08664,9.481994,-0.575292,2.717517,-0.038745,0.009840,0.067721,-0.018378,0.004043,0.002873,0.393481,-0.335973,-0.806719,0.094821,-0.005749,0.027174,1.000000,-0.000092,0.000020,0.000014,0.999996,0.002147,-0.001367,0.001141,0.245821,-0.156973,0.130466,0.999994,0.002277,0.002740,-0.002289,0.999988,0.004290,-0.002730,-0.004297,0.999987
08665,9.463330,-0.573225,2.688987,-0.016419,0.005846,0.041933,-0.017503,0.009021,-0.001875,0.396362,-0.339543,-0.805525,0.094634,-0.005731,0.026886,1.000000,-0.000088,0.000045,-0.000009,0.999996,0.002148,-0.001341,0.001055,0.245956,-0.153920,0.120519,0.999994,0.002103,0.002686,-0.002115,0.999989,0.004293,-0.002677,-0.004298,0.999987
08666,9.481538,-0.576334,2.718884,-0.039333,0.009564,0.067719,-0.014582,0.010887,0.003368,0.401449,-0.339052,-0.803702,0.094817,-0.005760,0.027184,1.000000,-0.000073,0.000054,0.000017,0.999996,0.002130,-0.001298,0.000991,0.243983,-0.149001,0.113287,0.999995,0.001977,0.002601,-0.001988,0.999989,0.004258,-0.002592,-0.004263,0.999988
08667,9.462811,-0.574364,2.690569,-0.016959,0.005523,0.041932,-0.014539,0.006346,0.001819,0.394124,-0.338334,-0.806144,0.094629,-0.005741,0.026903,1.000000,-0.000073,0.000032,0.000009,0.999997,0.002118,-0.001278,0.000926,0.242557,-0.146702,0.105778,0.999995,0.001846,0.002560,-0.001857,0.999989,0.004233,-0.002553,-0.004238,0.999988
08668,9.481546,-0.562767,2.700704,-0.018347,0.019240,0.062003,-0.010719,0.007142,0.001516,0.391072,-0.333958,-0.803219,0.094816,-0.005626,0.027004,1.000000,-0.000054,0.000036,0.000008,0.999997,0.002111,-0.001256,0.000880,0.241726,-0.144122,0.100507,0.999995,0.001754,0.002515,-0.001765,0.999990,0.004219,-0.002508,-0.004223,0.999988
08669,9.462446,-0.575288,2.691653,-0.017566,0.005232,0.041931,-0.009200,0.005044,0.001836,0.399260,-0.346095,-0.800012,0.094625,-0.005751,0.026914,1.000000,-0.000046,0.000025,0.000009,0.999997,0.002102,-0.001246,0.000844,0.240787,-0.142954,0.096466,0.999995,0.001684,0.002495,-0.001694,0.999990,0.004203,-0.002488,-0.004207,0.999988
08670,9.446881,-0.560574,2.703236,-0.029309,0.022532,0.029260,-0.007757,0.004467,0.005209,0.389860,-0.323730,-0.815836,0.094470,-0.005602,0.027030,1.000000,-0.000039,0.000022,0.000026,0.999997,0.002079,-0.001232,0.000818,0.238114,-0.141399,0.093493,0.999996,0.001632,0.002468,-0.001642,0.999990,0.004156,-0.002461,-0.004160,0.999988
08671,9.477110,-0.606435,2.700753,-0.028235,-0.022474,0.060313,-0.002401,0.004675,0.004475,0.397289,-0.331016,-0.802235,0.094772,-0.006062,0.027005,1.000000,-0.000012,0.000023,0.000022,0.999997,0.002066,-0.001221,0.000815,0.236658,-0.140101,0.093148,0.999996,0.001626,0.002445,-0.001636,0.999990,0.004130,-0.002438,-0.004134,0.999988
08672,9.446171,-0.576499,2.723352,-0.051441,0.012263,0.034969,-0.008522,0.000983,0.005400,0.396086,-0.336799,-0.810531,0.094462,-0.005761,0.027233,1.000000,-0.000043,0.000005,0.000027,0.999997,0.002037,-0.001224,0.000787,0.233328,-0.140466,0.089903,0.999996,0.001569,0.002452,-0.001579,0.999990,0.004072,-0.002445,-0.004076,0.999989
08673,9.443130,-0.589806,2.682925,-0.017635,-0.009155,0.021858,-0.000147,-0.004515,0.006057,0.399105,-0.341138,-0.809122,0.094431,-0.005895,0.026831,1.000000,-0.000001,-0.000023,0.000030,0.999997,0.002010,-0.001254,0.000796,0.230234,-0.143932,0.090893,0.999996,0.001586,0.002512,-0.001596,0.999991,0.004018,-0.002506,-0.004022,0.999989
08674,9.464819,-0.580637,2.751474,-0.074657,0.015850,0.060748,-0.001040,-0.011005,0.011555,0.401496,-0.336343,-0.800410,0.094647,-0.005801,0.027520,1.000000,-0.000005,-0.000055,0.000058,0.999997,0.001950,-0.001309,0.000815,0.223304,-0.150216,0.093136,0.999995,0.001626,0.002622,-0.001636,0.999991,0.003897,-0.002615,-0.003902,0.999989
08675,9.465530,-0.566701,2.730952,-0.053377,0.025667,0.055038,0.003679,-0.011277,0.005706,0.402006,-0.335612,-0.802848,0.094654,-0.005665,0.027315,1.000000,0.000018,-0.000056,0.000029,0.999997,0.001925,-0.001370,0.000846,0.220496,-0.157222,0.096654,0.999995,0.001687,0.002744,-0.001697,0.999991,0.003848,-0.002738,-0.003853,0.999989
08676,9.485182,-0.540383,2.720025,-0.033244,0.049383,0.069402,0.002144,-0.010688,0.006137,0.399649,-0.344998,-0.804958,0.094851,-0.005401,0.027205,1.000000,0.000011,-0.000053,0.000031,0.999997,0.001895,-0.001430,0.000874,0.217017,-0.164031,0.099788,0.999994,0.001742,0.002863,-0.001752,0.999991,0.003788,-0.002856,-0.003793,0.999989
08677,9.519771,-0.544147,2.717427,-0.023132,0.045593,0.102146,0.000608,-0.010099,0.006569,0.398641,-0.338391,-0.803138,0.095197,-0.005438,0.027179,1.000000,0.000003,-0.000050,0.000033,0.999997,0.001865,-0.001483,0.000892,0.213515,-0.170185,0.101861,0.999994,0.001778,0.002970,-0.001789,0.999991,0.003727,-0.002964,-0.003732,0.999989
08678,9.501055,-0.556801,2.706974,-0.022298,0.031602,0.082073,0.000626,-0.008590,0.005818,0.400753,-0.334350,-0.810874,0.095010,-0.005565,0.027074,1.000000,0.000003,-0.000043,0.000029,0.999997,0.001836,-0.001533,0.000911,0.210227,-0.175861,0.104040,0.999994,0.001816,0.003069,-0.001827,0.999992,0.003669,-0.003063,-0.003675,0.999989
08679,9.538690,-0.547948,2.744719,-0.046320,0.049148,0.127925,-0.005460,-0.009263,0.005243,0.396080,-0.343148,-0.807986,0.095386,-0.005476,0.027452,1.000000,-0.000027,-0.000046,0.000026,0.999997,0.001802,-0.001585,0.000894,0.206289,-0.181866,0.102068,0.999993,0.001781,0.003174,-0.001793,0.999992,0.003600,-0.003168,-0.003606,0.999988
08680,9.550729,-0.591246,2.712024,-0.022564,0.000279,0.133194,-0.000162,-0.006026,0.006809,0.398426,-0.338409,-0.800278,0.095507,-0.005909,0.027123,1.000000,-0.000001,-0.000030,0.000034,0.999997,0.001770,-0.001621,0.000909,0.202662,-0.185980,0.103882,0.999993,0.001813,0.003246,-0.001825,0.999992,0.003537,-0.003240,-0.003543,0.999988
08681,9.569752,-0.580023,2.721108,-0.023948,0.013920,0.153267,0.000495,-0.004039,0.011173,0.397266,-0.331564,-0.799177,0.095697,-0.005795,0.027213,1.000000,0.000002,-0.000020,0.000056,0.999997,0.001725,-0.001642,0.000936,0.197448,-0.188337,0.106972,0.999993,0.001867,0.003287,-0.001878,0.999992,0.003446,-0.003281,-0.003452,0.999989
08682,9.550331,-0.607725,2.730925,-0.044641,-0.010074,0.138896,0.000564,0.001999,0.008168,0.390300,-0.336043,-0.803248,0.095504,-0.006073,0.027308,1.000000,0.000003,0.000010,0.000041,0.999997,0.001696,-0.001637,0.000955,0.194203,-0.187798,0.109124,0.999993,0.001905,0.003278,-0.001916,0.999992,0.003389,-0.003271,-0.003396,0.999989
08683,9.512710,-0.617971,2.692805,-0.021165,-0.027926,0.093044,0.002809,0.007924,0.009847,0.397597,-0.336616,-0.806394,0.095128,-0.006175,0.026924,1.000000,0.000014,0.000040,0.000049,0.999997,0.001670,-0.001602,0.000982,0.191237,-0.183785,0.112270,0.999993,0.001959,0.003208,-0.001970,0.999992,0.003338,-0.003201,-0.003344,0.999989
08684,9.515888,-0.591561,2.714645,-0.034026,0.003225,0.100445,0.003519,0.014439,0.011957,0.396514,-0.331564,-0.801755,0.095161,-0.005910,0.027139,1.000000,0.000018,0.000072,0.000060,0.999997,0.001642,-0.001533,0.001017,0.187974,-0.175818,0.116214,0.999993,0.002028,0.003069,-0.002038,0.999993,0.003281,-0.003062,-0.003287,0.999990
08685,9.477994,-0.602070,2.677451,-0.010529,-0.014617,0.054595,0.001984,0.015028,0.012389,0.399288,-0.336453,-0.809684,0.094782,-0.006015,0.026767,1.000000,0.000010,0.000075,0.000062,0.999997,0.001610,-0.001459,0.001038,0.184357,-0.167412,0.118662,0.999994,0.002071,0.002922,-0.002080,0.999993,0.003218,-0.002915,-0.003224,0.999991
08686,9.482025,-0.546396,2.660595,0.019666,0.036543,0.050597,0.003503,0.012928,0.012709,0.400596,-0.341834,-0.807014,0.094822,-0.005458,0.026600,1.000000,0.000018,0.000065,0.000064,0.999997,0.001577,-0.001396,0.001074,0.180501,-0.160191,0.122765,0.999994,0.002143,0.002796,-0.002151,0.999993,0.003150,-0.002789,-0.003156,0.999991
08687,9.446822,-0.558896,2.682879,-0.012462,0.029952,0.023551,0.004308,0.011871,0.010967,0.396716,-0.330630,-0.798253,0.094470,-0.005584,0.026823,1.000000,0.000022,0.000059,0.000055,0.999997,0.001553,-0.001339,0.001109,0.177806,-0.153683,0.126788,0.999994,0.002213,0.002682,-0.002221,0.999993,0.003103,-0.002675,-0.003109,0.999992
08688,9.465886,-0.533400,2.673955,0.007665,0.053668,0.037928,-0.001175,0.008659,0.017009,0.395876,-0.342305,-0.799534,0.094660,-0.005326,0.026735,1.000000,-0.000006,0.000043,0.000085,0.999997,0.001488,-0.001292,0.001129,0.170372,-0.148283,0.129138,0.999994,0.002254,0.002588,-0.002262,0.999993,0.002974,-0.002581,-0.002979,0.999992
08689,9.427235,-0.573548,2.675021,-0.011873,0.015778,0.003477,-0.001008,0.007127,0.010151,0.400985,-0.345126,-0.798481,0.094274,-0.005731,0.026747,1.000000,-0.000005,0.000036,0.000051,0.999997,0.001457,-0.001259,0.001140,0.166741,-0.144481,0.130390,0.999994,0.002276,0.002522,-0.002283,0.999993,0.002910,-0.002515,-0.002916,0.999993
08690,9.446466,-0.547880,2.665574,0.008253,0.039494,0.017855,0.001203,0.002473,0.013285,0.402277,-0.332868,-0.805978,0.094465,-0.005473,0.026655,1.000000,0.000006,0.000012,0.000066,0.999998,0.001406,-0.001246,0.001168,0.160915,-0.143017,0.133677,0.999994,0.002333,0.002496,-0.002340,0.999993,0.002808,-0.002490,-0.002814,0.999993
08691,9.464401,-0.566144,2.714084,-0.036149,0.033130,0.049324,0.006669,-0.003383,0.007947,0.395927,-0.332115,-0.812264,0.094644,-0.005659,0.027142,1.000000,0.000033,-0.000017,0.000040,0.999998,0.001384,-0.001265,0.001213,0.158453,-0.145182,0.138840,0.999994,0.002423,0.002534,-0.002430,0.999993,0.002766,-0.002527,-0.002772,0.999993
08692,9.479352,-0.596862,2.722078,-0.046499,0.005545,0.067691,0.005846,-0.003837,0.010441,0.401672,-0.337645,-0.812160,0.094793,-0.005964,0.027222,1.000000,0.000029,-0.000019,0.000052,0.999997,0.001346,-0.001286,0.001262,0.154106,-0.147614,0.144455,0.999994,0.002521,0.002576,-0.002528,0.999993,0.002690,-0.002570,-0.002696,0.999993
08693,9.514215,-0.586109,2.700689,-0.014933,0.011831,0.094742,0.006670,-0.003384,0.007948,0.402027,-0.338924,-0.803617,0.095142,-0.005858,0.027008,1.000000,0.000033,-0.000017,0.000040,0.999997,0.001321,-0.001309,0.001306,0.151213,-0.150205,0.149406,0.999993,0.002608,0.002622,-0.002615,0.999993,0.002639,-0.002615,-0.002646,0.999993
08694,9.551133,-0.592276,2.758655,-0.060524,0.019373,0.146282,0.004257,-0.000217,0.013175,0.402573,-0.337552,-0.803776,0.095512,-0.005917,0.027587,1.000000,0.000021,-0.000001,0.000066,0.999997,0.001272,-0.001310,0.001349,0.145597,-0.150261,0.154449,0.999993,0.002696,0.002623,-0.002702,0.999993,0.002541,-0.002616,-0.002548,0.999993
08695,9.567343,-0.579183,2.708811,-0.006232,0.021755,0.147566,0.006599,0.005694,0.011049,0.396442,-0.340054,-0.797665,0.095675,-0.005787,0.027085,1.000000,0.000033,0.000028,0.000055,0.999997,0.001246,-0.001281,0.001394,0.142523,-0.146955,0.159533,0.999993,0.002784,0.002565,-0.002791,0.999993,0.002487,-0.002558,-0.002495,0.999994
08696,9.532752,-0.576864,2.711116,-0.016844,0.025209,0.114818,0.008081,0.008132,0.012920,0.397121,-0.335169,-0.801169,0.095329,-0.005764,0.027107,1.000000,0.000040,0.000041,0.000065,0.999997,0.001212,-0.001241,0.001453,0.138689,-0.142387,0.166349,0.999993,0.002903,0.002485,-0.002909,0.999993,0.002421,-0.002478,-0.002428,0.999994
08697,9.532805,-0.563240,2.692958,0.004431,0.035018,0.109126,-0.001035,0.019223,0.011749,0.403849,-0.333471,-0.798299,0.095331,-0.005627,0.026920,1.000000,-0.000005,0.000096,0.000059,0.999998,0.001186,-0.001147,0.001463,0.135752,-0.131608,0.167534,0.999993,0.002924,0.002297,-0.002929,0.999993,0.002369,-0.002290,-0.002376,0.999995
08698,9.496791,-0.590720,2.735625,-0.049238,0.018459,0.087760,-0.005673,0.025533,0.014592,0.396646,-0.333284,-0.800776,0.094972,-0.005899,0.027344,1.000000,-0.000028,0.000128,0.000073,0.999998,0.001145,-0.001020,0.001454,0.130995,-0.117091,0.166439,0.999994,0.002905,0.002044,-0.002910,0.999993,0.002286,-0.002037,-0.002292,0.999995
08699,9.444255,-0.556734,2.671568,0.005922,0.038072,0.017862,-0.003312,0.025394,0.011669,0.399534,-0.336671,-0.800601,0.094446,-0.005561,0.026704,1.000000,-0.000017,0.000127,0.000058,0.999998,0.001121,-0.000895,0.001442,0.128293,-0.102739,0.165102,0.999994,0.002882,0.001793,-0.002886,0.999993,0.002239,-0.001787,-0.002244,0.999996
08700,9.354084,-0.546439,2.587577,0.063294,0.030020,-0.092187,0.002837,0.009425,0.009100,0.391677,-0.332000,-0.801870,0.093542,-0.005460,0.025871,1.000000,0.000014,0.000047,0.000045,0.999998,0.001099,-0.000853,0.001470,0.125836,-0.097934,0.168389,0.999994,0.002939,0.001709,-0.002943,0.999993,0.002196,-0.001703,-0.002201,0.999996
08701,9.413421,-0.513075,2.676127,0.003980,0.082664,-0.013170,0.001343,-0.008126,0.007132,0.392419,-0.345029,-0.799289,0.094133,-0.005128,0.026765,1.000000,0.000007,-0.000041,0.000036,0.999998,0.001067,-0.000899,0.001492,0.122156,-0.103182,0.170906,0.999994,0.002983,0.001801,-0.002987,0.999993,0.002132,-0.001794,-0.002137,0.999996
08702,9.475627,-0.560094,2.611306,0.071056,0.022768,0.031832,0.001456,-0.006628,0.002575,0.396500,-0.340915,-0.803022,0.094755,-0.005600,0.026116,1.000000,0.000007,-0.000033,0.000013,0.999998,0.001057,-0.000942,0.001510,0.120985,-0.108177,0.172973,0.999994,0.003019,0.001888,-0.003023,0.999993,0.002112,-0.001882,-0.002117,0.999996
08703,9.371729,-0.580009,2.654458,-0.003256,0.013310,-0.055040,0.005916,-0.005361,0.007391,0.394518,-0.337493,-0.807276,0.093717,-0.005797,0.026547,1.000000,0.000030,-0.000027,0.000037,0.999998,0.001037,-0.000975,0.001566,0.118665,-0.111861,0.179322,0.999993,0.003130,0.001952,-0.003134,0.999993,0.002071,-0.001946,-0.002077,0.999996
08704,9.443002,-0.589237,2.710683,-0.038534,0.017242,0.029239,-0.003202,-0.001825,0.006170,0.410850,-0.334998,-0.813310,0.094430,-0.005889,0.027108,1.000000,-0.000016,-0.000009,0.000031,0.999998,0.001009,-0.000991,0.001565,0.115421,-0.113706,0.179222,0.999993,0.003128,0.001985,-0.003132,0.999993,0.002014,-0.001978,-0.002021,0.999996
08705,9.408664,-0.586577,2.712143,-0.049111,0.020692,-0.003512,-0.003182,-0.000316,0.005418,0.400826,-0.339838,-0.802503,0.094087,-0.005863,0.027122,1.000000,-0.000016,-0.000002,0.000027,0.999998,0.000986,-0.000999,0.001554,0.112830,-0.114661,0.178017,0.999993,0.003107,0.002001,-0.003111,0.999993,0.001969,-0.001995,-0.001975,0.999996
08706,9.393877,-0.557134,2.703445,-0.039315,0.048006,-0.021871,-0.013789,-0.006773,0.002278,0.395760,-0.340822,-0.800263,0.093938,-0.005568,0.027038,1.000000,-0.000069,-0.000034,0.000011,0.999998,0.000956,-0.001044,0.001499,0.109371,-0.119759,0.171659,0.999993,0.002996,0.002090,-0.003000,0.999994,0.001909,-0.002084,-0.001915,0.999996
08707,9.409698,-0.573069,2.690592,-0.028108,0.030351,-0.009198,-0.010791,-0.027597,0.003575,0.403627,-0.331258,-0.803575,0.094093,-0.005728,0.026919,1.000000,-0.000054,-0.000138,0.000018,0.999998,0.000905,-0.001187,0.001468,0.103547,-0.136147,0.168094,0.999993,0.002934,0.002376,-0.002938,0.999994,0.001807,-0.002371,-0.001814,0.999996
08708,9.536129,-0.543939,2.712969,-0.011153,0.064539,0.116539,-0.003852,-0.038578,0.000062,0.393586,-0.340126,-0.804715,0.095356,-0.005439,0.027148,1.000000,-0.000019,-0.000193,0.000000,0.999998,0.000865,-0.001389,0.001467,0.098911,-0.159297,0.167975,0.999992,0.002932,0.002780,-0.002937,0.999994,0.001726,-0.002775,-0.001734,0.999995
08709,9.590445,-0.535321,2.717323,-0.002230,0.074612,0.169370,-0.005364,-0.036480,-0.000257,0.400117,-0.330632,-0.798228,0.095899,-0.005353,0.027191,1.000000,-0.000027,-0.000182,-0.000001,0.999997,0.000828,-0.001580,0.001453,0.094637,-0.181194,0.166391,0.999991,0.002904,0.003162,-0.002909,0.999994,0.001652,-0.003158,-0.001661,0.999994
08710,9.606205,-0.565460,2.722445,-0.012588,0.047018,0.187726,-0.009890,-0.028670,-0.001966,0.403323,-0.338594,-0.794076,0.096058,-0.005654,0.027239,1.000000,-0.000049,-0.000143,-0.000010,0.999997,0.000800,-0.001736,0.001418,0.091362,-0.199069,0.162288,0.999990,0.002832,0.003474,-0.002838,0.999995,0.001595,-0.003470,-0.001604,0.999993
08711,9.617613,-0.637540,2.727215,-0.031799,-0.021922,0.204355,-0.009827,-0.016584,-0.004172,0.398496,-0.339781,-0.798009,0.096174,-0.006376,0.027280,1.000000,-0.000049,-0.000083,-0.000021,0.999997,0.000797,-0.001831,0.001366,0.091076,-0.209991,0.156327,0.999990,0.002728,0.003665,-0.002734,0.999995,0.001590,-0.003661,-0.001600,0.999992
08712,9.615275,-0.635414,2.666433,0.023570,-0.033324,0.185585,-0.007588,-0.004613,-0.001693,0.401455,-0.333910,-0.801670,0.096152,-0.006354,0.026667,1.000000,-0.000038,-0.000023,-0.000008,0.999997,0.000797,-0.001870,0.001334,0.091010,-0.214403,0.152684,0.999989,0.002665,0.003742,-0.002671,0.999995,0.001588,-0.003738,-0.001598,0.999992
08713,9.581433,-0.617343,2.648590,0.034559,-0.019907,0.147153,-0.003745,0.005248,-0.002701,0.403413,-0.329466,-0.807581,0.095815,-0.006174,0.026484,1.000000,-0.000019,0.000026,-0.000014,0.999997,0.000820,-0.001859,0.001311,0.093643,-0.213110,0.150058,0.999990,0.002619,0.003719,-0.002625,0.999995,0.001634,-0.003715,-0.001644,0.999992
08714,9.494540,-0.593130,2.604238,0.057847,-0.006656,0.050211,0.000079,0.013599,-0.002957,0.401479,-0.339363,-0.800659,0.094947,-0.005933,0.026036,1.000000,0.000000,0.000068,-0.000015,0.999997,0.000855,-0.001810,0.001309,0.097730,-0.207525,0.149791,0.999990,0.002614,0.003622,-0.002621,0.999995,0.001706,-0.003618,-0.001715,0.999992
08715,9.477836,-0.607226,2.655717,0.003109,-0.009397,0.048897,-0.003080,0.014790,0.001713,0.402257,-0.326737,-0.800378,0.094780,-0.006071,0.026550,1.000000,-0.000015,0.000074,0.000009,0.999997,0.000867,-0.001747,0.001287,0.099088,-0.200346,0.147261,0.999991,0.002570,0.003497,-0.002576,0.999995,0.001729,-0.003492,-0.001738,0.999992
08716,9.443002,-0.604063,2.659105,-0.007484,-0.005932,0.016144,0.000014,0.022675,0.000147,0.397851,-0.334676,-0.802653,0.094433,-0.006041,0.026580,1.000000,0.000000,0.000113,0.000001,0.999997,0.000898,-0.001651,0.001285,0.102627,-0.189293,0.147126,0.999991,0.002568,0.003304,-0.002574,0.999995,0.001791,-0.003299,-0.001800,0.999993
08717,9.389597,-0.598095,2.633812,0.004637,-0.006292,-0.042367,0.000015,0.022674,0.000148,0.398125,-0.338264,-0.806802,0.093899,-0.005981,0.026327,1.000000,0.000000,0.000113,0.000001,0.999998,0.000928,-0.001552,0.001272,0.106165,-0.178005,0.145620,0.999992,0.002542,0.003107,-0.002547,0.999995,0.001853,-0.003102,-0.001861,0.999993
08718,9.392259,-0.585402,2.675611,-0.029764,0.014841,-0.029282,0.000044,0.010577,-0.001453,0.399973,-0.341008,-0.796406,0.093924,-0.005855,0.026751,1.000000,0.000000,0.000053,-0.000007,0.999998,0.000954,-0.001516,0.001273,0.109065,-0.173912,0.145677,0.999992,0.002543,0.003035,-0.002548,0.999995,0.001904,-0.003030,-0.001911,0.999994
08719,9.373662,-0.582388,2.647103,-0.007334,0.010810,-0.055039,0.001645,0.000909,-0.004988,0.388485,-0.336519,-0.809077,0.093737,-0.005826,0.026471,1.000000,0.000008,0.000005,-0.000025,0.999998,0.000991,-0.001530,0.001279,0.113308,-0.175472,0.146378,0.999992,0.002555,0.003063,-0.002561,0.999995,0.001978,-0.003057,-0.001985,0.999993
08720,9.414307,-0.559549,2.725710,-0.065552,0.049606,0.003881,0.004088,-0.006795,-0.011769,0.400205,-0.332573,-0.800796,0.094142,-0.005602,0.027260,1.000000,0.000020,-0.000034,-0.000059,0.999997,0.001051,-0.001590,0.001290,0.120226,-0.182412,0.147654,0.999992,0.002577,0.003184,-0.002584,0.999994,0.002098,-0.003178,-0.002107,0.999993
08721,9.449517,-0.546867,2.703558,-0.034009,0.055860,0.030959,0.001067,-0.016200,-0.013257,0.397511,-0.334436,-0.792382,0.094493,-0.005475,0.027043,1.000000,0.000005,-0.000081,-0.000066,0.999997,0.001105,-0.001699,0.001287,0.126381,-0.194895,0.147223,0.999991,0.002570,0.003402,-0.002577,0.999994,0.002206,-0.003396,-0.002214,0.999992
08722,9.484452,-0.548796,2.700106,-0.023980,0.052115,0.063713,0.004885,-0.022968,-0.013609,0.397229,-0.338446,-0.808829,0.094841,-0.005495,0.027012,1.000000,0.000024,-0.000115,-0.000068,0.999997,0.001158,-0.001841,0.001304,0.132402,-0.211103,0.149212,0.999990,0.002604,0.003684,-0.002613,0.999994,0.002311,-0.003678,-0.002320,0.999991
08723,9.516369,-0.563522,2.656047,0.020201,0.027058,0.083386,-0.001290,-0.023625,-0.010378,0.394924,-0.330392,-0.804597,0.095160,-0.005640,0.026572,1.000000,-0.000006,-0.000118,-0.000052,0.999996,0.001188,-0.001980,0.001294,0.135880,-0.227099,0.147994,0.999989,0.002583,0.003964,-0.002592,0.999994,0.002372,-0.003957,-0.002382,0.999989
08724,9.569893,-0.568540,2.681122,0.007551,0.027135,0.141895,-0.003574,-0.025010,-0.010505,0.392872,-0.341626,-0.803236,0.095695,-0.005690,0.026823,1.000000,-0.000018,-0.000125,-0.000053,0.999996,0.001213,-0.002128,0.001276,0.138644,-0.244036,0.145886,0.999988,0.002546,0.004259,-0.002556,0.999994,0.002420,-0.004253,-0.002431,0.999988
08725,9.586369,-0.568303,2.648347,0.040242,0.019537,0.148898,-0.005124,-0.018372,-0.009273,0.403133,-0.339841,-0.806228,0.095861,-0.005687,0.026492,1.000000,-0.000026,-0.000092,-0.000046,0.999996,0.001238,-0.002243,0.001249,0.141490,-0.257157,0.142842,0.999987,0.002493,0.004488,-0.002504,0.999994,0.002469,-0.004482,-0.002481,0.999987
08726,9.552420,-0.564439,2.648734,0.029656,0.023006,0.116144,-0.006711,-0.007192,-0.006489,0.400607,-0.332756,-0.798371,0.095523,-0.005647,0.026491,1.000000,-0.000034,-0.000036,-0.000032,0.999996,0.001258,-0.002299,0.001216,0.143818,-0.263624,0.139015,0.999986,0.002426,0.004601,-0.002438,0.999994,0.002510,-0.004595,-0.002521,0.999986
08727,9.552092,-0.578548,2.667842,0.007902,0.012815,0.121815,-0.004354,0.000232,-0.009367,0.399141,-0.336471,-0.806590,0.095521,-0.005789,0.026678,1.000000,-0.000022,0.000001,-0.000047,0.999996,0.001305,-0.002320,0.001179,0.149201,-0.265977,0.134776,0.999986,0.002352,0.004642,-0.002364,0.999994,0.002604,-0.004636,-0.002615,0.999986
08728,9.519168,-0.530611,2.611122,0.061913,0.046330,0.072053,-0.007514,0.001423,-0.004697,0.397244,-0.333286,-0.810360,0.095192,-0.005307,0.026111,1.000000,-0.000038,0.000007,-0.000023,0.999996,0.001325,-0.002332,0.001142,0.151511,-0.267402,0.130489,0.999987,0.002277,0.004667,-0.002290,0.999994,0.002644,-0.004661,-0.002655,0.999986
08729,9.445919,-0.580531,2.632899,0.010571,0.002093,0.010471,-0.007460,0.005952,-0.006951,0.395982,-0.330430,-0.805414,0.094460,-0.005808,0.026326,1.000000,-0.000037,0.000030,-0.000035,0.999996,0.001361,-0.002325,0.001094,0.155644,-0.266544,0.124983,0.999987,0.002181,0.004652,-0.002194,0.999994,0.002716,-0.004646,-0.002727,0.999985
08730,9.465225,-0.553324,2.623512,0.030676,0.025806,0.024886,-0.002926,0.005701,-0.005194,0.397010,-0.329148,-0.797576,0.094653,-0.005535,0.026233,1.000000,-0.000015,0.000029,-0.000026,0.999996,0.001394,-0.002317,0.001077,0.159476,-0.265651,0.122992,0.999987,0.002147,0.004636,-0.002160,0.999994,0.002783,-0.004630,-0.002793,0.999985
08731,9.429910,-0.578891,2.664424,-0.022951,0.009257,0.003465,-0.004335,0.001741,-0.010118,0.394216,-0.335570,-0.801847,0.094299,-0.005793,0.026644,1.000000,-0.000022,0.000009,-0.000051,0.999996,0.001444,-0.002333,0.001037,0.165186,-0.267505,0.118428,0.999987,0.002067,0.004669,-0.002080,0.999994,0.002883,-0.004663,-0.002893,0.999985
08732,9.415060,-0.548275,2.656066,-0.013146,0.036580,-0.014875,-0.002943,-0.003369,-0.004492,0.397774,-0.332883,-0.806191,0.094150,-0.005484,0.026562,1.000000,-0.000015,-0.000017,-0.000022,0.999996,0.001464,-0.002369,0.001023,0.167512,-0.271585,0.116851,0.999987,0.002039,0.004740,-0.002053,0.999994,0.002924,-0.004734,-0.002933,0.999984
08733,9.446466,-0.563890,2.613539,0.031013,0.011552,0.004807,-0.003746,-0.009874,-0.002799,0.399579,-0.330011,-0.805955,0.094463,-0.005640,0.026140,1.000000,-0.000019,-0.000049,-0.000014,0.999995,0.001469,-0.002434,0.001005,0.168086,-0.279039,0.114770,0.999986,0.002003,0.004870,-0.002017,0.999994,0.002934,-0.004864,-0.002943,0.999984
08734,9.461648,-0.593788,2.620865,0.020652,-0.016047,0.023146,-0.005280,-0.009284,-0.002366,0.394809,-0.337292,-0.810921,0.094615,-0.005938,0.026213,1.000000,-0.000026,-0.000046,-0.000012,0.999995,0.001470,-0.002496,0.000985,0.168168,-0.286143,0.112445,0.999986,0.001963,0.004994,-0.001977,0.999994,0.002935,-0.004988,-0.002945,0.999983
08735,9.515287,-0.584975,2.627528,0.029518,-0.005963,0.075987,-0.000014,-0.016630,0.000651,0.397778,-0.334586,-0.809244,0.095151,-0.005849,0.026283,1.000000,-0.000000,-0.000083,0.000003,0.999995,0.001456,-0.002590,0.000990,0.166548,-0.296965,0.112974,0.999985,0.001972,0.005183,-0.001987,0.999994,0.002907,-0.005177,-0.002917,0.999982
08736,9.532060,-0.570779,2.575580,0.083752,-0.003515,0.077335,-0.004509,-0.020921,-0.002656,0.397029,-0.335114,-0.800633,0.095318,-0.005708,0.025766,1.000000,-0.000023,-0.000105,-0.000013,0.999995,0.001447,-0.002709,0.000976,0.165463,-0.310605,0.111430,0.999983,0.001945,0.005421,-0.001960,0.999994,0.002888,-0.005415,-0.002898,0.999981
08737,9.591721,-0.551409,2.681507,0.002830,0.039056,0.161986,-0.003028,-0.018482,-0.000786,0.393041,-0.336869,-0.806591,0.095915,-0.005514,0.026824,1.000000,-0.000015,-0.000092,-0.000004,0.999995,0.001434,-0.002813,0.000966,0.164023,-0.322543,0.110238,0.999982,0.001924,0.005629,-0.001940,0.999994,0.002863,-0.005624,-0.002874,0.999980
08738,9.568880,-0.605927,2.669968,-0.005230,-0.016211,0.140154,-0.009281,0.005060,0.005652,0.400557,-0.335134,-0.796576,0.095690,-0.006055,0.026698,1.000000,-0.000046,0.000025,0.000028,0.999995,0.001407,-0.002796,0.000933,0.160957,-0.320600,0.106473,0.999983,0.001858,0.005595,-0.001874,0.999994,0.002809,-0.005590,-0.002820,0.999980
08739,9.462632,-0.609731,2.634877,-0.002229,-0.026809,0.028808,-0.007083,-0.001106,0.009533,0.402968,-0.336108,-0.807197,0.094626,-0.006092,0.026350,1.000000,-0.000035,-0.000006,0.000048,0.999995,0.001360,-0.002804,0.000914,0.155606,-0.321446,0.104259,0.999983,0.001820,0.005610,-0.001835,0.999995,0.002716,-0.005605,-0.002726,0.999981
08740,9.550373,-0.605105,2.640486,0.016922,-0.020343,0.114409,-0.003208,-0.010903,0.006874,0.401605,-0.338008,-0.798662,0.095502,-0.006047,0.026410,1.000000,-0.000016,-0.000055,0.000034,0.999995,0.001319,-0.002863,0.000916,0.150855,-0.328267,0.104579,0.999982,0.001825,0.005729,-0.001840,0.999995,0.002633,-0.005724,-0.002643,0.999980
08741,9.554582,-0.563606,2.641102,0.025632,0.020770,0.116160,-0.000855,-0.003476,0.003996,0.394728,-0.332185,-0.801997,0.095545,-0.005634,0.026413,1.000000,-0.000004,-0.000017,0.000020,0.999995,0.001305,-0.002887,0.000916,0.149192,-0.330966,0.104540,0.999982,0.001825,0.005776,-0.001840,0.999995,0.002604,-0.005772,-0.002614,0.999980
08742,9.481369,-0.614141,2.662718,-0.025694,-0.023450,0.054550,-0.000019,0.006051,0.000801,0.394249,-0.334401,-0.810758,0.094815,-0.006141,0.026624,1.000000,-0.000000,0.000030,0.000004,0.999995,0.001314,-0.002871,0.000921,0.150310,-0.329109,0.105074,0.999982,0.001834,0.005744,-0.001849,0.999995,0.002623,-0.005739,-0.002634,0.999980
08743,9.465857,-0.598838,2.674470,-0.037427,-0.006148,0.041876,0.003050,0.004870,-0.000065,0.395809,-0.339891,-0.808924,0.094659,-0.005989,0.026742,1.000000,0.000015,0.000024,-0.000000,0.999995,0.001331,-0.002862,0.000935,0.152267,-0.328065,0.106691,0.999982,0.001862,0.005726,-0.001877,0.999995,0.002658,-0.005721,-0.002668,0.999980
08744,9.447733,-0.581214,2.626232,0.006519,-0.000082,0.010475,0.004622,-0.000260,-0.002050,0.396616,-0.333577,-0.801530,0.094477,-0.005814,0.026262,1.000000,0.000023,-0.000001,-0.000010,0.999994,0.001354,-0.002879,0.000960,0.154860,-0.330106,0.109550,0.999982,0.001912,0.005761,-0.001928,0.999994,0.002703,-0.005756,-0.002714,0.999980
08745,9.450867,-0.568358,2.666593,-0.027886,0.021008,0.023543,0.006103,0.002179,-0.000180,0.397100,-0.338264,-0.810318,0.094509,-0.005684,0.026665,1.000000,0.000031,0.000011,-0.000001,0.999994,0.001374,-0.002883,0.000991,0.157176,-0.330481,0.113123,0.999981,0.001974,0.005768,-0.001990,0.999994,0.002743,-0.005763,-0.002755,0.999980
08746,9.432348,-0.565459,2.637626,-0.005473,0.017058,-0.002199,0.004604,-0.001771,-0.001299,0.395769,-0.338829,-0.808149,0.094323,-0.005656,0.026377,1.000000,0.000023,-0.000009,-0.000006,0.999994,0.001392,-0.002907,0.001018,0.159175,-0.333269,0.116143,0.999981,0.002027,0.005817,-0.002043,0.999994,0.002778,-0.005811,-0.002790,0.999979
08747,9.413899,-0.562706,2.608375,0.016944,0.013077,-0.027939,0.006034,-0.003862,0.002824,0.399571,-0.339015,-0.805698,0.094139,-0.005627,0.026085,1.000000,0.000030,-0.000019,0.000014,0.999994,0.001392,-0.002937,0.001056,0.159117,-0.336688,0.120522,0.999981,0.002103,0.005876,-0.002120,0.999994,0.002777,-0.005870,-0.002789,0.999979
08748,9.467293,-0.553986,2.615898,0.025791,0.023152,0.024907,0.007569,-0.004453,0.002391,0.398441,-0.336068,-0.806640,0.094672,-0.005540,0.026161,1.000000,0.000038,-0.000022,0.000012,0.999994,0.001393,-0.002970,0.001102,0.159268,-0.340502,0.125843,0.999980,0.002196,0.005943,-0.002213,0.999994,0.002780,-0.005937,-0.002793,0.999978
08749,9.436296,-0.538152,2.657166,-0.018884,0.047856,0.005213,0.008320,-0.010039,0.002902,0.395716,-0.331454,-0.802793,0.094362,-0.005381,0.026576,1.000000,0.000042,-0.000050,0.000015,0.999994,0.001389,-0.003028,0.001150,0.158770,-0.347206,0.131282,0.999979,0.002291,0.006060,-0.002308,0.999993,0.002771,-0.006053,-0.002785,0.999978
08750,9.485793,-0.571501,2.662834,-0.018967,0.016632,0.056301,0.010587,-0.010165,0.003779,0.394874,-0.336358,-0.807889,0.094857,-0.005715,0.026633,1.000000,0.000053,-0.000051,0.000019,0.999994,0.001382,-0.003088,0.001214,0.157938,-0.354035,0.138679,0.999978,0.002420,0.006179,-0.002437,0.999993,0.002756,-0.006172,-0.002771,0.999977
08751,9.470664,-0.556367,2.673199,-0.030685,0.033930,0.043626,0.009785,-0.009110,0.005523,0.401535,-0.344853,-0.803982,0.094706,-0.005562,0.026736,1.000000,0.000049,-0.000046,0.000028,0.999993,0.001367,-0.003140,0.001272,0.156247,-0.360013,0.145257,0.999977,0.002535,0.006283,-0.002552,0.999993,0.002727,-0.006276,-0.002743,0.999977
08752,9.487187,-0.542280,2.622033,0.023548,0.036383,0.044998,0.008375,-0.013071,0.000600,0.394329,-0.334308,-0.805187,0.094870,-0.005424,0.026226,1.000000,0.000042,-0.000065,0.000003,0.999993,0.001369,-0.003217,0.001322,0.156412,-0.368871,0.151040,0.999976,0.002636,0.006438,-0.002654,0.999993,0.002730,-0.006431,-0.002747,0.999976
08753,9.505601,-0.559602,2.669367,-0.020932,0.029982,0.076387,0.007573,-0.012016,0.002344,0.389844,-0.331907,-0.802861,0.095054,-0.005596,0.026699,1.000000,0.000038,-0.000060,0.000012,0.999993,0.001365,-0.003286,0.001369,0.155944,-0.376734,0.156330,0.999975,0.002728,0.006575,-0.002746,0.999993,0.002722,-0.006568,-0.002740,0.999975
08754,9.521701,-0.560214,2.637570,0.011766,0.022415,0.083411,0.007573,-0.012016,0.002344,0.392817,-0.330903,-0.804237,0.095215,-0.005602,0.026381,1.000000,0.000038,-0.000060,0.000012,0.999992,0.001359,-0.003356,0.001417,0.155177,-0.384776,0.161909,0.999973,0.002826,0.006716,-0.002844,0.999992,0.002708,-0.006708,-0.002727,0.999974
08755,9.521987,-0.560320,2.636516,0.011474,0.022277,0.083412,0.004504,-0.010835,0.003211,0.392782,-0.336942,-0.804735,0.095219,-0.005602,0.026370,1.000000,0.000023,-0.000054,0.000016,0.999992,0.001345,-0.003420,0.001448,0.153611,-0.392107,0.165351,0.999972,0.002886,0.006843,-0.002904,0.999992,0.002681,-0.006836,-0.002701,0.999973
08756,9.537569,-0.575757,2.624429,0.022638,0.004690,0.096087,0.006805,-0.007941,0.002584,0.387484,-0.337946,-0.811328,0.095375,-0.005757,0.026248,1.000000,0.000034,-0.000040,0.000013,0.999992,0.001341,-0.003470,0.001492,0.153099,-0.397841,0.170404,0.999971,0.002974,0.006944,-0.002993,0.999992,0.002672,-0.006936,-0.002693,0.999972
08757,9.506602,-0.559920,2.665733,-0.022091,0.029399,0.076386,0.005287,-0.005839,0.002266,0.390379,-0.341589,-0.807341,0.095065,-0.005599,0.026660,1.000000,0.000026,-0.000029,0.000011,0.999992,0.001340,-0.003511,0.001529,0.152940,-0.402597,0.174731,0.999971,0.003050,0.007027,-0.003068,0.999992,0.002669,-0.007018,-0.002691,0.999972
08758,9.537397,-0.590600,2.642927,0.000515,-0.005636,0.101735,0.006054,-0.002354,0.002072,0.392002,-0.337400,-0.810611,0.095374,-0.005906,0.026430,1.000000,0.000030,-0.000012,0.000010,0.999992,0.001343,-0.003535,0.001568,0.153280,-0.405278,0.179097,0.999970,0.003126,0.007073,-0.003145,0.999991,0.002675,-0.007065,-0.002697,0.999971
08759,9.465503,-0.597059,2.606160,0.013810,-0.019820,0.023151,0.006664,0.002664,0.008737,0.394058,-0.334473,-0.808668,0.094656,-0.005967,0.026060,1.000000,0.000033,0.000013,0.000044,0.999992,0.001323,-0.003527,0.001619,0.150978,-0.404414,0.184981,0.999970,0.003228,0.007058,-0.003247,0.999991,0.002635,-0.007050,-0.002658,0.999972
08760,9.487590,-0.573000,2.656100,-0.021783,0.015120,0.056298,0.005915,0.000688,0.008179,0.388676,-0.343654,-0.802521,0.094876,-0.005727,0.026561,1.000000,0.000030,0.000003,0.000041,0.999992,0.001301,-0.003529,0.001664,0.148395,-0.404609,0.190121,0.999970,0.003318,0.007062,-0.003337,0.999991,0.002590,-0.007053,-0.002613,0.999972
08761,9.487525,-0.573501,2.656223,-0.022070,0.014938,0.056297,0.009002,0.001016,0.006561,0.393196,-0.338041,-0.808671,0.094876,-0.005733,0.026561,1.000000,0.000045,0.000005,0.000033,0.999991,0.001293,-0.003531,0.001723,0.147455,-0.404876,0.196919,0.999969,0.003437,0.007066,-0.003455,0.999991,0.002574,-0.007057,-0.002598,0.999972
08762,9.449894,-0.583451,2.617946,0.001526,-0.002828,0.010476,0.007398,0.003128,0.010047,0.394642,-0.338792,-0.807567,0.094500,-0.005831,0.026178,1.000000,0.000037,0.000016,0.000050,0.999991,0.001266,-0.003519,0.001777,0.144405,-0.403470,0.203083,0.999969,0.003544,0.007042,-0.003562,0.999990,0.002520,-0.007033,-0.002545,0.999972
08763,9.471921,-0.559340,2.668119,-0.034070,0.032077,0.043622,0.008235,0.005092,0.006800,0.400252,-0.331476,-0.806914,0.094720,-0.005591,0.026679,1.000000,0.000041,0.000025,0.000034,0.999991,0.001260,-0.003500,0.001828,0.143663,-0.401380,0.208998,0.999969,0.003648,0.007005,-0.003665,0.999990,0.002507,-0.006996,-0.002533,0.999972
08764,9.434700,-0.554512,2.610497,0.011063,0.024337,-0.007841,0.008201,0.002071,0.008305,0.393181,-0.338406,-0.806632,0.094347,-0.005542,0.026104,1.000000,0.000041,0.000010,0.000042,0.999991,0.001242,-0.003495,0.001884,0.141543,-0.400789,0.215367,0.999968,0.003759,0.006995,-0.003776,0.999990,0.002470,-0.006986,-0.002497,0.999972
08765,9.449541,-0.585025,2.618868,0.000714,-0.003288,0.010476,0.012789,-0.001215,0.007758,0.391409,-0.333867,-0.808404,0.094495,-0.005848,0.026189,1.000000,0.000064,-0.000006,0.000039,0.999991,0.001230,-0.003506,0.001954,0.140113,-0.401986,0.223472,0.999968,0.003900,0.007016,-0.003917,0.999989,0.002445,-0.007006,-0.002473,0.999972
08766,9.438405,-0.528016,2.630828,-0.002086,0.055320,-0.000425,0.014308,-0.010880,0.008035,0.395819,-0.334235,-0.802824,0.094383,-0.005278,0.026313,1.000000,0.000072,-0.000054,0.000040,0.999991,0.001207,-0.003564,0.002043,0.137483,-0.408669,0.233609,0.999966,0.004077,0.007133,-0.004094,0.999989,0.002399,-0.007123,-0.002429,0.999972
08767,9.491958,-0.519550,2.637735,0.006737,0.065368,0.052429,0.011324,-0.009709,0.005095,0.393026,-0.340822,-0.809638,0.094918,-0.005195,0.026382,1.000000,0.000057,-0.000049,0.000025,0.999991,0.001196,-0.003619,0.002107,0.136178,-0.415037,0.240993,0.999965,0.004206,0.007244,-0.004223,0.999988,0.002377,-0.007234,-0.002407,0.999971
08768,9.495032,-0.521773,2.696312,-0.049229,0.076453,0.071123,0.014344,-0.015424,0.006488,0.397914,-0.330998,-0.803689,0.094948,-0.005217,0.026970,1.000000,0.000072,-0.000077,0.000032,0.999990,0.001176,-0.003701,0.002195,0.133816,-0.424455,0.251067,0.999963,0.004382,0.007408,-0.004399,0.999988,0.002335,-0.007398,-0.002368,0.999970
08769,9.526430,-0.537912,2.653340,-0.005073,0.051418,0.090835,0.009074,-0.008072,0.003466,0.391341,-0.338662,-0.809147,0.095263,-0.005379,0.026537,1.000000,0.000045,-0.000040,0.000017,0.999990,0.001172,-0.003750,0.002246,0.133291,-0.430050,0.256877,0.999962,0.004483,0.007506,-0.004501,0.999987,0.002326,-0.007495,-0.002360,0.999969
08770,9.541936,-0.553705,2.641408,0.006087,0.033830,0.103511,0.008905,-0.008049,0.011078,0.394847,-0.333997,-0.806355,0.095419,-0.005533,0.026418,1.000000,0.000045,-0.000040,0.000055,0.999990,0.001130,-0.003791,0.002312,0.128530,-0.434751,0.264421,0.999961,0.004615,0.007588,-0.004632,0.999987,0.002243,-0.007577,-0.002278,0.999969
08771,9.523048,-0.566393,2.631382,0.006985,0.019847,0.083421,0.005954,-0.003856,0.006632,0.393105,-0.335167,-0.803304,0.095230,-0.005662,0.026315,1.000000,0.000030,-0.000019,0.000033,0.999989,0.001111,-0.003817,0.002353,0.126338,-0.437670,0.269126,0.999960,0.004697,0.007639,-0.004714,0.999986,0.002205,-0.007628,-0.002241,0.999968
08772,9.542061,-0.554963,2.640691,0.005528,0.033530,0.103512,0.010441,-0.001078,0.010686,0.397568,-0.334090,-0.802316,0.095421,-0.005546,0.026407,1.000000,0.000052,-0.000005,0.000053,0.999989,0.001082,-0.003824,0.002423,0.122893,-0.438532,0.277210,0.999959,0.004838,0.007654,-0.004855,0.999986,0.002145,-0.007643,-0.002182,0.999968
08773,9.556842,-0.585723,2.649201,-0.004817,0.005892,0.121823,0.009692,0.004509,0.010169,0.388324,-0.334488,-0.813099,0.095569,-0.005854,0.026490,1.000000,0.000048,0.000023,0.000051,0.999989,0.001060,-0.003804,0.002481,0.120441,-0.436163,0.283800,0.999959,0.004953,0.007612,-0.004969,0.999985,0.002102,-0.007602,-0.002140,0.999969
08774,9.522655,-0.568592,2.632331,0.006175,0.019407,0.083423,0.009626,0.013595,0.013262,0.395728,-0.330154,-0.802034,0.095229,-0.005681,0.026317,1.000000,0.000048,0.000068,0.000066,0.999989,0.001033,-0.003737,0.002546,0.117311,-0.428499,0.291325,0.999959,0.005084,0.007479,-0.005100,0.999985,0.002047,-0.007468,-0.002085,0.999970
08775,9.472488,-0.550981,2.646874,-0.015811,0.040349,0.037981,0.011881,0.019518,0.014933,0.392829,-0.340640,-0.811361,0.094728,-0.005504,0.026459,1.000000,0.000059,0.000098,0.000075,0.999989,0.001007,-0.003639,0.002617,0.114357,-0.417347,0.299434,0.999960,0.005226,0.007284,-0.005241,0.999984,0.001996,-0.007273,-0.002034,0.999971
08776,9.452936,-0.564239,2.639095,-0.014911,0.026390,0.017891,0.005758,0.015836,0.015871,0.390722,-0.338166,-0.803626,0.094532,-0.005636,0.026383,1.000000,0.000029,0.000079,0.000079,0.999990,0.000965,-0.003559,0.002666,0.109502,-0.408090,0.305160,0.999960,0.005326,0.007122,-0.005340,0.999984,0.001911,-0.007112,-0.001949,0.999973
08777,9.451985,-0.579937,2.660129,-0.036729,0.016185,0.023523,0.012735,0.015424,0.010893,0.394842,-0.341719,-0.801776,0.094522,-0.005796,0.026594,1.000000,0.000064,0.000077,0.000054,0.999990,0.000957,-0.003486,0.002744,0.108594,-0.399736,0.314060,0.999961,0.005481,0.006977,-0.005495,0.999983,0.001895,-0.006966,-0.001934,0.999974
08778,9.433067,-0.578174,2.632294,-0.014291,0.012253,-0.002201,0.014916,0.007745,0.015539,0.385971,-0.344568,-0.806564,0.094332,-0.005776,0.026319,1.000000,0.000075,0.000039,0.000078,0.999990,0.000920,-0.003445,0.002840,0.104347,-0.395048,0.325056,0.999960,0.005673,0.006895,-0.005686,0.999982,0.001821,-0.006884,-0.001860,0.999975
08779,9.467144,-0.582464,2.631284,-0.004311,0.008414,0.030566,0.012697,0.004840,0.012362,0.396308,-0.334986,-0.805001,0.094672,-0.005820,0.026310,1.000000,0.000063,0.000024,0.000062,0.999989,0.000896,-0.003422,0.002927,0.101502,-0.392395,0.335078,0.999959,0.005848,0.006849,-0.005860,0.999981,0.001771,-0.006838,-0.001812,0.999975
08780,9.448398,-0.580611,2.602874,0.018129,0.004484,0.004845,0.010447,0.006478,0.010731,0.396164,-0.328564,-0.810808,0.094485,-0.005802,0.026025,1.000000,0.000052,0.000032,0.000054,0.999989,0.000874,-0.003392,0.002995,0.098980,-0.389028,0.342907,0.999959,0.005985,0.006790,-0.005997,0.999981,0.001727,-0.006779,-0.001768,0.999975
08781,9.413370,-0.592546,2.624761,-0.013924,-0.002043,-0.022293,0.011267,0.006929,0.008235,0.389014,-0.331321,-0.804400,0.094135,-0.005923,0.026244,1.000000,0.000056,0.000035,0.000041,0.999989,0.000865,-0.003363,0.003054,0.097942,-0.385634,0.349592,0.999959,0.006101,0.006731,-0.006113,0.999980,0.001709,-0.006720,-0.001750,0.999976
08782,9.447526,-0.596312,2.623590,-0.003946,-0.005813,0.010474,0.013566,0.002257,0.007569,0.393020,-0.333557,-0.805822,0.094476,-0.005961,0.026234,1.000000,0.000068,0.000011,0.000038,0.999989,0.000858,-0.003357,0.003134,0.097082,-0.385035,0.358790,0.999958,0.006262,0.006720,-0.006273,0.999979,0.001694,-0.006709,-0.001736,0.999976
08783,9.450658,-0.583880,2.663981,-0.038388,0.015287,0.023518,0.006007,0.000670,0.004377,0.393200,-0.341554,-0.804857,0.094507,-0.005838,0.026639,1.000000,0.000030,0.000003,0.000022,0.999989,0.000853,-0.003364,0.003169,0.096569,-0.385760,0.362802,0.999957,0.006332,0.006733,-0.006343,0.999978,0.001685,-0.006722,-0.001728,0.999976
08784,9.481631,-0.600241,2.622569,0.005747,-0.009726,0.043242,0.008283,0.008102,0.005293,0.394160,-0.328873,-0.803103,0.094818,-0.006001,0.026222,1.000000,0.000041,0.000041,0.000026,0.999989,0.000856,-0.003332,0.003219,0.096831,-0.382186,0.368532,0.999957,0.006432,0.006670,-0.006443,0.999978,0.001690,-0.006659,-0.001733,0.999976
08785,9.432730,-0.552228,2.597173,0.026867,0.031254,-0.013455,0.005366,0.007753,-0.000702,0.388138,-0.333444,-0.809230,0.094328,-0.005523,0.025968,1.000000,0.000027,0.000039,-0.000004,0.999989,0.000883,-0.003309,0.003242,0.099940,-0.379488,0.371162,0.999957,0.006478,0.006623,-0.006489,0.999977,0.001744,-0.006612,-0.001787,0.999977
08786,9.451087,-0.554960,2.626765,0.003867,0.034905,0.012265,-0.000849,0.004092,0.004040,0.393137,-0.340842,-0.817300,0.094512,-0.005548,0.026266,1.000000,-0.000004,0.000020,0.000020,0.999989,0.000874,-0.003299,0.003248,0.098944,-0.378306,0.371814,0.999957,0.006489,0.006603,-0.006501,0.999977,0.001727,-0.006591,-0.001770,0.999977
08787,9.488456,-0.545674,2.665814,-0.020350,0.052362,0.058076,-0.009803,0.007615,-0.004789,0.398488,-0.342179,-0.804110,0.094885,-0.005458,0.026655,1.000000,-0.000049,0.000038,-0.000024,0.999989,0.000899,-0.003282,0.003197,0.101781,-0.376457,0.365981,0.999958,0.006387,0.006570,-0.006399,0.999978,0.001776,-0.006559,-0.001818,0.999977
08788,9.434908,-0.554370,2.658760,-0.029692,0.042040,0.005213,-0.015208,0.010455,-0.001752,0.392623,-0.336449,-0.809267,0.094350,-0.005543,0.026583,1.000000,-0.000076,0.000052,-0.000009,0.999989,0.000904,-0.003247,0.003124,0.102435,-0.372456,0.357604,0.999959,0.006241,0.006501,-0.006253,0.999979,0.001788,-0.006489,-0.001828,0.999977
08789,9.379262,-0.546493,2.572046,0.038225,0.030501,-0.071936,-0.012097,-0.001327,-0.004951,0.393566,-0.343584,-0.800132,0.093792,-0.005466,0.025721,1.000000,-0.000060,-0.000007,-0.000025,0.999990,0.000918,-0.003273,0.003062,0.104062,-0.375331,0.350540,0.999960,0.006118,0.006551,-0.006130,0.999980,0.001816,-0.006539,-0.001856,0.999977
08790,9.348998,-0.515088,2.593146,0.015076,0.065267,-0.097287,-0.005056,-0.024439,-0.013846,0.390125,-0.337122,-0.801163,0.093486,-0.005157,0.025943,1.000000,-0.000025,-0.000122,-0.000069,0.999989,0.000957,-0.003421,0.003032,0.108464,-0.392379,0.347082,0.999958,0.006058,0.006848,-0.006071,0.999980,0.001893,-0.006837,-0.001935,0.999975
08791,9.470789,-0.541175,2.634115,0.001295,0.047918,0.032362,-0.007292,-0.028855,-0.016269,0.390234,-0.332786,-0.803484,0.094704,-0.005418,0.026355,1.000000,-0.000036,-0.000144,-0.000081,0.999989,0.001002,-0.003593,0.002991,0.113618,-0.412107,0.342332,0.999956,0.005975,0.007193,-0.005989,0.999980,0.001983,-0.007181,-0.002026,0.999972
08792,9.489908,-0.542273,2.661333,-0.021711,0.051565,0.058077,-0.007940,-0.008158,-0.020517,0.382322,-0.330766,-0.795582,0.094897,-0.005431,0.026617,1.000000,-0.000040,-0.000041,-0.000103,0.999988,0.001086,-0.003670,0.002933,0.123177,-0.420921,0.335670,0.999956,0.005858,0.007346,-0.005874,0.999980,0.002150,-0.007334,-0.002193,0.999971
08793,9.401678,-0.575422,2.693311,-0.084379,0.024811,-0.016318,-0.008776,-0.010121,-0.017267,0.390303,-0.340565,-0.811133,0.094015,-0.005761,0.026938,1.000000,-0.000044,-0.000051,-0.000086,0.999988,0.001151,-0.003754,0.002874,0.130681,-0.430499,0.328880,0.999955,0.005740,0.007514,-0.005757,0.999981,0.002281,-0.007500,-0.002324,0.999969
08794,9.451867,-0.592663,2.678854,-0.062976,0.003583,0.029127,-0.004208,-0.022484,-0.017094,0.392311,-0.337966,-0.802818,0.094515,-0.005934,0.026799,1.000000,-0.000021,-0.000112,-0.000085,0.999988,0.001208,-0.003896,0.002843,0.137206,-0.446873,0.325303,0.999953,0.005677,0.007799,-0.005696,0.999981,0.002395,-0.007786,-0.002439,0.999967
08795,9.468796,-0.577425,2.626446,-0.008745,0.006017,0.030565,-0.005844,-0.023389,-0.012101,0.396783,-0.336872,-0.805393,0.094685,-0.005779,0.026276,1.000000,-0.000029,-0.000117,-0.000061,0.999987,0.001241,-0.004038,0.002812,0.140899,-0.463112,0.321645,0.999952,0.005614,0.008083,-0.005634,0.999981,0.002459,-0.008069,-0.002504,0.999964
08796,9.534907,-0.595971,2.580506,0.045628,-0.022631,0.083072,-0.010482,-0.024632,-0.009295,0.385238,-0.333935,-0.803552,0.095346,-0.005963,0.025817,1.000000,-0.000052,-0.000123,-0.000046,0.999987,0.001251,-0.004182,0.002762,0.141992,-0.479671,0.315911,0.999950,0.005513,0.008372,-0.005534,0.999982,0.002478,-0.008358,-0.002524,0.999962
08797,9.554719,-0.583371,2.587129,0.044160,-0.008977,0.103167,0.002383,-0.034941,-0.004627,0.389295,-0.335164,-0.804736,0.095543,-0.005836,0.025888,1.000000,0.000012,-0.000175,-0.000023,0.999986,0.001246,-0.004372,0.002780,0.141421,-0.501369,0.317921,0.999946,0.005549,0.008750,-0.005570,0.999981,0.002468,-0.008737,-0.002517,0.999959
08798,9.616330,-0.519588,2.632960,0.027667,0.063590,0.170871,0.003036,-0.034465,0.000490,0.395518,-0.332883,-0.813925,0.096159,-0.005196,0.026346,1.000000,0.000015,-0.000172,0.000002,0.999985,0.001218,-0.004553,0.002811,0.138140,-0.522176,0.321498,0.999943,0.005611,0.009114,-0.005633,0.999981,0.002411,-0.009100,-0.002462,0.999956
08799,9.682006,-0.553980,2.606070,0.060498,0.024903,0.228998,-0.003969,-0.021948,0.007057,0.390072,-0.331962,-0.802928,0.096817,-0.005536,0.026071,1.000000,-0.000020,-0.000110,0.000035,0.999984,0.001163,-0.004667,0.002807,0.131813,-0.535120,0.321056,0.999941,0.005603,0.009339,-0.005625,0.999982,0.002300,-0.009326,-0.002353,0.999954
08800,9.628538,-0.578270,2.616581,0.029633,0.004556,0.181748,-0.006288,-0.003656,0.008555,0.389523,-0.336832,-0.814212,0.096285,-0.005778,0.026168,1.000000,-0.000031,-0.000018,0.000043,0.999984,0.001118,-0.004689,0.002795,0.126582,-0.537675,0.319694,0.999940,0.005579,0.009384,-0.005600,0.999982,0.002209,-0.009372,-0.002262,0.999954
08801,9.560219,-0.558187,2.600667,0.030405,0.021721,0.110590,-0.007154,0.006491,0.013388,0.392004,-0.341351,-0.801965,0.095603,-0.005575,0.026004,1.000000,-0.000036,0.000032,0.000067,0.999985,0.001059,-0.004657,0.002778,0.119928,-0.533981,0.317781,0.999941,0.005546,0.009320,-0.005566,0.999982,0.002093,-0.009308,-0.002145,0.999954
08802,9.510326,-0.541057,2.614260,0.008453,0.042675,0.065142,-0.010223,0.007677,0.014255,0.390389,-0.330535,-0.803020,0.095105,-0.005402,0.026139,1.000000,-0.000051,0.000038,0.000071,0.999985,0.000994,-0.004618,0.002751,0.112432,-0.529470,0.314750,0.999942,0.005493,0.009241,-0.005512,0.999983,0.001962,-0.009230,-0.002013,0.999955
08803,9.422795,-0.533888,2.589439,0.010456,0.046006,-0.026111,-0.015007,0.007969,0.023922,0.393477,-0.339668,-0.801886,0.094230,-0.005326,0.025891,1.000000,-0.000075,0.000040,0.000120,0.999986,0.000878,-0.004565,0.002711,0.099228,-0.523435,0.310167,0.999944,0.005413,0.009136,-0.005429,0.999984,0.001732,-0.009126,-0.001781,0.999957
08804,9.407201,-0.521192,2.601165,-0.001255,0.063321,-0.038787,-0.015773,0.004481,0.024120,0.389923,-0.345670,-0.810005,0.094073,-0.005199,0.026010,1.000000,-0.000079,0.000022,0.000121,0.999986,0.000755,-0.004531,0.002671,0.085171,-0.519432,0.305738,0.999945,0.005336,0.009066,-0.005350,0.999985,0.001486,-0.009058,-0.001535,0.999958
08805,9.387578,-0.550525,2.611232,-0.021857,0.039273,-0.053271,-0.018027,-0.001446,0.022452,0.393402,-0.335222,-0.803136,0.093876,-0.005492,0.026113,1.000000,-0.000090,-0.000007,0.000112,0.999986,0.000634,-0.004526,0.002623,0.071304,-0.518867,0.300302,0.999945,0.005241,0.009056,-0.005253,0.999985,0.001244,-0.009049,-0.001292,0.999958
08806,9.369034,-0.550188,2.581638,0.000605,0.035359,-0.078978,-0.018682,-0.009487,0.017297,0.389549,-0.331414,-0.807861,0.093690,-0.005491,0.025821,1.000000,-0.000093,-0.000047,0.000086,0.999986,0.000524,-0.004567,0.002565,0.058724,-0.523543,0.293701,0.999945,0.005126,0.009137,-0.005135,0.999986,0.001025,-0.009132,-0.001072,0.999958
08807,9.422653,-0.543497,2.587958,0.009372,0.045375,-0.026107,-0.018620,-0.018576,0.014203,0.395378,-0.343183,-0.803203,0.094225,-0.005426,0.025889,1.000000,-0.000093,-0.000093,0.000071,0.999986,0.000420,-0.004656,0.002501,0.046779,-0.533634,0.286359,0.999944,0.004998,0.009314,-0.005005,0.999987,0.000816,-0.009309,-0.000863,0.999956
08808,9.476865,-0.521861,2.574299,0.039664,0.065440,0.021156,-0.022357,-0.019376,0.010709,0.395309,-0.332388,-0.806998,0.094766,-0.005211,0.025753,1.000000,-0.000112,-0.000097,0.000054,0.999986,0.000325,-0.004752,0.002419,0.035940,-0.544682,0.277061,0.999943,0.004835,0.009506,-0.004842,0.999988,0.000627,-0.009503,-0.000673,0.999955
08809,9.481090,-0.495792,2.593001,0.026789,0.096520,0.028578,-0.017673,-0.021167,0.005601,0.391787,-0.332020,-0.809531,0.094808,-0.004953,0.025940,1.000000,-0.000088,-0.000106,0.000028,0.999985,0.000261,-0.004862,0.002350,0.028620,-0.557177,0.269109,0.999942,0.004697,0.009724,-0.004702,0.999989,0.000499,-0.009722,-0.000545,0.999953
08810,9.565036,-0.533714,2.595765,0.036864,0.061605,0.112413,-0.021520,-0.017414,0.007462,0.391870,-0.331489,-0.808792,0.095648,-0.005331,0.025967,1.000000,-0.000108,-0.000087,0.000037,0.999985,0.000185,-0.004952,0.002267,0.019904,-0.567551,0.259697,0.999941,0.004532,0.009905,-0.004536,0.999990,0.000347,-0.009904,-0.000392,0.999951
08811,9.512076,-0.543950,2.586281,0.027562,0.051296,0.059543,-0.026215,-0.017139,0.013328,0.394884,-0.334729,-0.802042,0.095119,-0.005430,0.025872,1.000000,-0.000131,-0.000086,0.000067,0.999985,0.000075,-0.005035,0.002163,0.007372,-0.576990,0.247850,0.999940,0.004326,0.010070,-0.004327,0.999991,0.000129,-0.010070,-0.000172,0.999949
08812,9.546222,-0.563885,2.602608,0.015972,0.037477,0.097925,-0.029196,-0.008396,0.010437,0.391121,-0.330207,-0.807048,0.095461,-0.005630,0.026031,1.000000,-0.000146,-0.000042,0.000052,0.999985,-0.000016,-0.005079,0.002045,-0.003006,-0.581951,0.234358,0.999940,0.004090,0.010157,-0.004090,0.999992,-0.000052,-0.010157,0.000011,0.999948
08813,9.546337,-0.565622,2.601810,0.015718,0.037315,0.097926,-0.028424,-0.004912,0.010243,0.390333,-0.332055,-0.807327,0.095463,-0.005648,0.026021,1.000000,-0.000142,-0.000025,0.000051,0.999985,-0.000100,-0.005104,0.001923,-0.012591,-0.584845,0.220375,0.999941,0.003846,0.010207,-0.003844,0.999993,-0.000220,-0.010208,0.000180,0.999948
08814,9.561179,-0.597495,2.609589,0.005330,0.009686,0.116209,-0.028450,-0.000371,0.011794,0.395271,-0.328069,-0.806224,0.095612,-0.005966,0.026097,1.000000,-0.000142,-0.000002,0.000059,0.999985,-0.000188,-0.005107,0.001807,-0.022584,-0.585155,0.207216,0.999941,0.003616,0.010213,-0.003613,0.999993,-0.000394,-0.010214,0.000357,0.999948
08815,9.541609,-0.626086,2.619452,-0.015267,-0.014305,0.101715,-0.027695,0.001601,0.012353,0.389396,-0.326985,-0.805782,0.095417,-0.006251,0.026195,1.000000,-0.000138,0.000008,0.000062,0.999986,-0.000275,-0.005099,0.001688,-0.032469,-0.584195,0.193562,0.999942,0.003378,0.010196,-0.003373,0.999994,-0.000567,-0.010198,0.000532,0.999948
08816,9.507536,-0.609775,2.602073,-0.004233,-0.000761,0.063336,-0.026889,0.008111,0.010657,0.394257,-0.334218,-0.811777,0.095077,-0.006089,0.026018,1.000000,-0.000134,0.000041,0.000053,0.999986,-0.000346,-0.005061,0.001576,-0.040555,-0.579922,0.180774,0.999944,0.003155,0.010121,-0.003148,0.999995,-0.000708,-0.010124,0.000676,0.999949
08817,9.522530,-0.626590,2.591445,0.006924,-0.018363,0.076013,-0.022991,0.008893,0.006538,0.385560,-0.335583,-0.804664,0.095227,-0.006260,0.025911,1.000000,-0.000115,0.000044,0.000033,0.999986,-0.000391,-0.005025,0.001471,-0.045673,-0.575712,0.168755,0.999945,0.002945,0.010048,-0.002937,0.999995,-0.000797,-0.010050,0.000768,0.999949
08818,9.526071,-0.600575,2.612793,-0.005993,0.012761,0.083434,-0.023023,0.005866,0.008041,0.394852,-0.330062,-0.799744,0.095262,-0.005999,0.026126,1.000000,-0.000115,0.000029,0.000040,0.999986,-0.000447,-0.005001,0.001374,-0.052035,-0.573031,0.157766,0.999946,0.002753,0.010001,-0.002744,0.999996,-0.000908,-0.010004,0.000881,0.999950
08819,9.507337,-0.598824,2.584092,0.016488,0.008815,0.057735,-0.019099,0.002109,0.002368,0.397656,-0.336030,-0.804885,0.095074,-0.005985,0.025840,1.000000,-0.000095,0.000011,0.000012,0.999987,-0.000473,-0.005002,0.001288,-0.054987,-0.573096,0.147927,0.999947,0.002582,0.010002,-0.002572,0.999996,-0.000960,-0.010005,0.000934,0.999950
08820,9.517882,-0.671590,2.590926,-0.002801,-0.060114,0.074192,-0.020569,0.001185,-0.000251,0.393279,-0.335700,-0.814798,0.095179,-0.006713,0.025909,1.000000,-0.000103,0.000006,-0.000001,0.999987,-0.000492,-0.005011,0.001194,-0.057094,-0.574101,0.137165,0.999947,0.002394,0.010020,-0.002384,0.999997,-0.000996,-0.010022,0.000972,0.999949
08821,9.521602,-0.644835,2.611805,-0.015695,-0.029030,0.081612,-0.017547,0.003027,0.001182,0.397092,-0.332040,-0.799380,0.095216,-0.006445,0.026117,1.000000,-0.000088,0.000015,0.000006,0.999987,-0.000510,-0.005007,0.001113,-0.059044,-0.573752,0.127801,0.999947,0.002230,0.010014,-0.002220,0.999997,-0.001030,-0.010016,0.001008,0.999949
08822,9.482934,-0.683907,2.612581,-0.035094,-0.066819,0.047011,-0.018230,0.007103,-0.002380,0.390401,-0.327260,-0.806584,0.094830,-0.006838,0.026123,1.000000,-0.000091,0.000036,-0.000012,0.999987,-0.000509,-0.004990,0.001025,-0.058909,-0.571727,0.117776,0.999948,0.002055,0.009978,-0.002045,0.999997,-0.001028,-0.009980,0.001008,0.999950
08823,9.505980,-0.630179,2.624221,-0.027655,-0.011872,0.068932,-0.018991,0.011181,-0.002134,0.393404,-0.334784,-0.807968,0.095061,-0.006300,0.026237,1.000000,-0.000095,0.000056,-0.000011,0.999987,-0.000505,-0.004950,0.000926,-0.058396,-0.567227,0.106368,0.999949,0.001856,0.009900,-0.001846,0.999998,-0.001019,-0.009902,0.001001,0.999950
08824,9.468057,-0.639638,2.586706,-0.003972,-0.029583,0.023135,-0.020522,0.011772,-0.001697,0.394031,-0.336303,-0.809931,0.094682,-0.006395,0.025862,1.000000,-0.000103,0.000059,-0.000008,0.999987,-0.000506,-0.004909,0.000827,-0.058404,-0.562510,0.095017,0.999950,0.001658,0.009817,-0.001648,0.999998,-0.001019,-0.009819,0.001003,0.999951
08825,9.448728,-0.651685,2.578209,-0.003025,-0.043566,0.003035,-0.021159,0.012821,-0.007564,0.393066,-0.328873,-0.806853,0.094489,-0.006518,0.025777,1.000000,-0.000106,0.000064,-0.000038,0.999988,-0.000476,-0.004869,0.000715,-0.054992,-0.557885,0.082152,0.999952,0.001434,0.009737,-0.001424,0.999999,-0.000960,-0.009738,0.000946,0.999952
08826,9.449443,-0.621917,2.540121,0.039778,-0.023625,-0.008156,-0.012815,0.005783,-0.006184,0.394931,-0.324812,-0.807397,0.094495,-0.006220,0.025399,1.000000,-0.000064,0.000029,-0.000031,0.999988,-0.000452,-0.004862,0.000648,-0.052140,-0.557086,0.074560,0.999952,0.001301,0.009723,-0.001292,0.999999,-0.000910,-0.009724,0.000897,0.999952
08827,9.487345,-0.597587,2.559943,0.037089,0.003851,0.032044,-0.019544,0.012226,-0.011806,0.389373,-0.330518,-0.810099,0.094875,-0.005979,0.025594,1.000000,-0.000098,0.000061,-0.000059,0.999988,-0.000403,-0.004829,0.000531,-0.046530,-0.553337,0.061070,0.999953,0.001066,0.009657,-0.001058,0.999999,-0.000812,-0.009658,0.000802,0.999953
08828,9.399024,-0.617070,2.574204,-0.003945,-0.012826,-0.048018,-0.025661,0.008537,-0.010868,0.386679,-0.335803,-0.804227,0.093991,-0.006173,0.025739,1.000000,-0.000128,0.000043,-0.000054,0.999988,-0.000372,-0.004814,0.000396,-0.042811,-0.551611,0.045579,0.999953,0.000795,0.009627,-0.000788,0.999999,-0.000747,-0.009628,0.000740,0.999953
08829,9.451553,-0.637731,2.620585,-0.038319,-0.022919,0.016047,-0.026444,-0.010082,-0.010797,0.390014,-0.335532,-0.811812,0.094514,-0.006379,0.026211,1.000000,-0.000132,-0.000050,-0.000054,0.999988,-0.000360,-0.004890,0.000264,-0.041391,-0.560368,0.030507,0.999952,0.000532,0.009780,-0.000525,1.000000,-0.000722,-0.009780,0.000717,0.999952
08830,9.520886,-0.629405,2.596799,0.003368,-0.020321,0.076011,-0.021919,-0.004292,-0.008238,0.391706,-0.333922,-0.808236,0.095208,-0.006295,0.025971,1.000000,-0.000110,-0.000021,-0.000041,0.999988,-0.000349,-0.004935,0.000155,-0.040099,-0.565460,0.017954,0.999951,0.000313,0.009869,-0.000306,1.000000,-0.000700,-0.009869,0.000697,0.999951
08831,9.490526,-0.598486,2.618746,-0.019775,0.014420,0.050654,-0.017340,-0.007578,-0.008799,0.388989,-0.332713,-0.810496,0.094904,-0.005987,0.026192,1.000000,-0.000087,-0.000038,-0.000044,0.999987,-0.000331,-0.004996,0.000068,-0.038008,-0.572503,0.008009,0.999950,0.000140,0.009992,-0.000133,1.000000,-0.000663,-0.009992,0.000662,0.999950
08832,9.490386,-0.612769,2.637166,-0.041594,0.004242,0.056245,-0.013495,-0.011326,-0.010670,0.395584,-0.322120,-0.798432,0.094902,-0.006131,0.026377,1.000000,-0.000067,-0.000057,-0.000053,0.999987,-0.000305,-0.005077,-0.000002,-0.034976,-0.581831,-0.000032,0.999948,-0.000001,0.010155,0.000007,1.000000,-0.000610,-0.010155,0.000610,0.999948
08833,9.559877,-0.604153,2.612825,0.000099,0.006831,0.116213,-0.009013,-0.016126,-0.006676,0.390443,-0.335092,-0.803545,0.095596,-0.006044,0.026136,1.000000,-0.000045,-0.000081,-0.000033,0.999987,-0.000297,-0.005177,-0.000051,-0.033955,-0.593249,-0.005629,0.999946,-0.000098,0.010354,0.000104,1.000000,-0.000593,-0.010354,0.000594,0.999946
08834,9.541196,-0.615529,2.602123,0.001035,-0.007109,0.096112,0.000155,-0.007564,-0.007676,0.394471,-0.335407,-0.810060,0.095411,-0.006159,0.026025,1.000000,0.000001,-0.000038,-0.000038,0.999986,-0.000262,-0.005237,-0.000052,-0.029951,-0.600086,-0.005832,0.999945,-0.000102,0.010473,0.000107,1.000000,-0.000523,-0.010473,0.000524,0.999945
08835,9.510799,-0.584425,2.624275,-0.022086,0.027621,0.070754,-0.004486,-0.002767,-0.004055,0.390731,-0.330535,-0.801848,0.095108,-0.005846,0.026244,1.000000,-0.000022,-0.000014,-0.000020,0.999986,-0.000243,-0.005268,-0.000073,-0.027752,-0.603707,-0.008264,0.999944,-0.000144,0.010536,0.000149,1.000000,-0.000484,-0.010536,0.000486,0.999944
08836,9.526588,-0.584549,2.593370,0.010601,0.020068,0.077845,-0.000655,-0.000460,-0.005117,0.389978,-0.331379,-0.813581,0.095266,-0.005848,0.025934,1.000000,-0.000003,-0.000002,-0.000026,0.999986,-0.000213,-0.005290,-0.000078,-0.024364,-0.606248,-0.008772,0.999944,-0.000153,0.010581,0.000158,1.000000,-0.000425,-0.010581,0.000427,0.999944
08837,9.523248,-0.596505,2.553307,0.044504,-0.001304,0.064835,-0.001402,0.005132,-0.005616,0.393952,-0.334949,-0.808637,0.095233,-0.005968,0.025531,1.000000,-0.000007,0.000026,-0.000028,0.999986,-0.000175,-0.005286,-0.000091,-0.020020,-0.605752,-0.010289,0.999944,-0.000180,0.010572,0.000183,1.000000,-0.000349,-0.010572,0.000351,0.999944
08838,9.476810,-0.564890,2.607348,-0.011595,0.040888,0.032386,-0.002900,0.008748,-0.006676,0.389453,-0.334451,-0.804782,0.094769,-0.005652,0.026069,1.000000,-0.000014,0.000044,-0.000033,0.999986,-0.000131,-0.005265,-0.000111,-0.014995,-0.603355,-0.012611,0.999945,-0.000220,0.010530,0.000223,1.000000,-0.000262,-0.010530,0.000264,0.999945
08839,9.488133,-0.606933,2.576078,0.012208,-0.008004,0.037642,-0.003680,0.011313,-0.005678,0.397352,-0.334951,-0.808611,0.094883,-0.006072,0.025756,1.000000,-0.000018,0.000057,-0.000028,0.999986,-0.000089,-0.005230,-0.000135,-0.010072,-0.599348,-0.015376,0.999945,-0.000268,0.010460,0.000270,1.000000,-0.000176,-0.010460,0.000179,0.999945
08840,9.453522,-0.603086,2.579050,0.001725,-0.004484,0.004861,-0.001380,0.014210,-0.006301,0.383664,-0.335382,-0.815809,0.094537,-0.006034,0.025784,1.000000,-0.000007,0.000071,-0.000032,0.999987,-0.000039,-0.005182,-0.000149,-0.004333,-0.593854,-0.017002,0.999946,-0.000297,0.010365,0.000298,1.000000,-0.000076,-0.010364,0.000079,0.999946
08841,9.456553,-0.590243,2.620381,-0.032756,0.016564,0.017869,0.000819,0.008027,-0.002433,0.397758,-0.327248,-0.808221,0.094567,-0.005904,0.026200,1.000000,0.000004,0.000040,-0.000012,0.999987,-0.000009,-0.005161,-0.000144,-0.000931,-0.591390,-0.016506,0.999947,-0.000288,0.010322,0.000288,1.000000,-0.000016,-0.010322,0.000019,0.999947
08842,9.468330,-0.617756,2.569657,0.012581,-0.022244,0.017540,-0.004494,0.010849,-0.003181,0.386638,-0.331559,-0.812353,0.094685,-0.006178,0.025692,1.000000,-0.000022,0.000054,-0.000016,0.999987,0.000019,-0.005126,-0.000168,0.002230,-0.587368,-0.019234,0.999947,-0.000336,0.010251,0.000335,1.000000,0.000039,-0.010251,-0.000035,0.999947
08843,9.453737,-0.572529,2.542910,0.043957,0.015162,-0.006304,0.003132,0.004873,-0.003868,0.393747,-0.334345,-0.811629,0.094538,-0.005728,0.025427,1.000000,0.000016,0.000024,-0.000019,0.999987,0.000053,-0.005121,-0.000160,0.006207,-0.586786,-0.018316,0.999948,-0.000320,0.010241,0.000319,1.000000,0.000108,-0.010241,-0.000105,0.999948
08844,9.487574,-0.590285,2.560789,0.032338,0.001324,0.032062,0.002347,-0.000128,-0.002933,0.387207,-0.334028,-0.802092,0.094876,-0.005905,0.025608,1.000000,0.000012,-0.000001,-0.000015,0.999987,0.000077,-0.005139,-0.000147,0.008927,-0.588860,-0.016845,0.999947,-0.000294,0.010277,0.000292,1.000000,0.000156,-0.010277,-0.000153,0.999947
08845,9.490929,-0.577615,2.600857,-0.002134,0.022365,0.045068,0.002296,-0.004668,-0.000687,0.390549,-0.332202,-0.812731,0.094909,-0.005777,0.026011,1.000000,0.000011,-0.000023,-0.000003,0.999987,0.000087,-0.005176,-0.000130,0.010069,-0.593182,-0.014911,0.999946,-0.000260,0.010353,0.000258,1.000000,0.000176,-0.010353,-0.000173,0.999946
08846,9.505913,-0.607461,2.608535,-0.012530,-0.005273,0.063327,0.003111,-0.004206,-0.003183,0.392122,-0.333574,-0.805306,0.095058,-0.006077,0.026087,1.000000,0.000016,-0.000021,-0.000016,0.999986,0.000109,-0.005215,-0.000112,0.012534,-0.597565,-0.012912,0.999946,-0.000225,0.010429,0.000223,1.000000,0.000219,-0.010429,-0.000216,0.999946
08847,9.525036,-0.595267,2.617779,-0.014038,0.008365,0.083430,0.003047,-0.002693,-0.000125,0.400255,-0.335998,-0.814798,0.095250,-0.005953,0.026179,1.000000,0.000015,-0.000013,-0.000001,0.999986,0.000119,-0.005242,-0.000093,0.013665,-0.600717,-0.010782,0.999945,-0.000188,0.010484,0.000186,1.000000,0.000238,-0.010484,-0.000237,0.999945
08848,9.559456,-0.598471,2.615673,-0.004122,0.004568,0.116213,-0.002236,-0.004410,-0.002434,0.381764,-0.335455,-0.819578,0.095594,-0.005986,0.026159,1.000000,-0.000011,-0.000022,-0.000012,0.999986,0.000129,-0.005281,-0.000101,0.014875,-0.605116,-0.011600,0.999944,-0.000202,0.010561,0.000200,1.000000,0.000260,-0.010561,-0.000257,0.999944
08849,9.578970,-0.571687,2.605625,0.015886,0.028253,0.130739,0.003000,0.000333,0.002184,0.391558,-0.337197,-0.805141,0.095790,-0.005716,0.026056,1.000000,0.000015,0.000002,0.000011,0.999986,0.000132,-0.005292,-0.000077,0.015117,-0.606405,-0.008948,0.999944,-0.000156,0.010584,0.000153,1.000000,0.000264,-0.010584,-0.000262,0.999944
08850,9.559907,-0.583985,2.596146,0.016834,0.014317,0.110636,-0.000879,0.001051,0.005554,0.389945,-0.331945,-0.806960,0.095599,-0.005837,0.025961,1.000000,-0.000004,0.000005,0.000028,0.999986,0.000112,-0.005295,-0.000069,0.012923,-0.606724,-0.007969,0.999944,-0.000139,0.010589,0.000137,1.000000,0.000226,-0.010589,-0.000224,0.999944
08851,9.597805,-0.560592,2.615684,0.014098,0.041735,0.150845,0.000657,0.008026,0.005180,0.390135,-0.337105,-0.804726,0.095979,-0.005604,0.026153,1.000000,0.000003,0.000040,0.000026,0.999986,0.000107,-0.005264,-0.000056,0.012255,-0.603166,-0.006520,0.999945,-0.000114,0.010527,0.000112,1.000000,0.000214,-0.010527,-0.000213,0.999945
08852,9.526040,-0.552136,2.560447,0.049167,0.037757,0.066702,0.000610,0.011051,0.007489,0.392946,-0.333905,-0.807580,0.095262,-0.005518,0.025599,1.000000,0.000003,0.000055,0.000037,0.999986,0.000091,-0.005215,-0.000041,0.010495,-0.597653,-0.004780,0.999946,-0.000083,0.010431,0.000082,1.000000,0.000183,-0.010431,-0.000182,0.999946
08853,9.528478,-0.555301,2.621431,-0.006842,0.048739,0.085279,-0.003217,0.016308,0.008612,0.395762,-0.321372,-0.805604,0.095287,-0.005548,0.026207,1.000000,-0.000016,0.000082,0.000043,0.999987,0.000073,-0.005140,-0.000045,0.008443,-0.589005,-0.005202,0.999947,-0.000091,0.010280,0.000089,1.000000,0.000147,-0.010280,-0.000146,0.999947
08854,9.489930,-0.580123,2.603942,-0.004659,0.021010,0.045070,-0.002465,0.018281,0.009175,0.389941,-0.333226,-0.811282,0.094902,-0.005797,0.026031,1.000000,-0.000012,0.000091,0.000046,0.999987,0.000054,-0.005055,-0.000045,0.006201,-0.579238,-0.005151,0.999949,-0.000090,0.010109,0.000089,1.000000,0.000108,-0.010109,-0.000107,0.999949
08855,9.455537,-0.562923,2.588007,0.006419,0.034589,0.006712,0.002067,0.018022,0.010924,0.387468,-0.334724,-0.804203,0.094558,-0.005624,0.025871,1.000000,0.000010,0.000090,0.000055,0.999988,0.000032,-0.004969,-0.000028,0.003653,-0.569359,-0.003281,0.999951,-0.000057,0.009937,0.000057,1.000000,0.000064,-0.009937,-0.000063,0.999951
08856,9.455029,-0.563890,2.589650,0.006140,0.034452,0.006712,-0.007012,0.017025,0.008175,0.395172,-0.329569,-0.802635,0.094553,-0.005634,0.025889,1.000000,-0.000035,0.000085,0.000041,0.999988,0.000009,-0.004891,-0.000051,0.001088,-0.560422,-0.005843,0.999952,-0.000102,0.009781,0.000102,1.000000,0.000019,-0.009781,-0.000018,0.999952
08857,9.469876,-0.580100,2.579792,0.017295,0.016826,0.019393,-0.003965,0.014331,0.008052,0.393430,-0.335773,-0.811536,0.094701,-0.005797,0.025791,1.000000,-0.000020,0.000072,0.000040,0.999988,-0.000010,-0.004825,-0.000061,-0.001094,-0.552943,-0.006949,0.999953,-0.000121,0.009651,0.000121,1.000000,-0.000019,-0.009651,0.000020,0.999953
08858,9.450493,-0.592769,2.571386,0.018251,0.002895,-0.000712,-0.000121,0.010586,0.006181,0.390004,-0.332566,-0.800873,0.094506,-0.005925,0.025709,1.000000,-0.000001,0.000053,0.000031,0.999989,-0.000020,-0.004781,-0.000051,-0.002320,-0.547858,-0.005799,0.999954,-0.000101,0.009562,0.000102,1.000000,-0.000040,-0.009562,0.000041,0.999954
08859,9.453580,-0.580786,2.612171,-0.016222,0.023928,0.012285,-0.004614,0.000258,0.002057,0.381192,-0.330035,-0.803644,0.094536,-0.005806,0.026122,1.000000,-0.000023,0.000001,0.000010,0.999989,-0.000027,-0.004791,-0.000066,-0.003105,-0.549042,-0.007499,0.999954,-0.000131,0.009582,0.000131,1.000000,-0.000054,-0.009582,0.000055,0.999954
08860,9.491647,-0.557016,2.631201,-0.018972,0.051380,0.052496,0.003045,-0.002693,-0.000124,0.397167,-0.337495,-0.809829,0.094916,-0.005571,0.026313,1.000000,0.000015,-0.000013,-0.000001,0.999988,-0.000019,-0.004819,-0.000045,-0.002104,-0.552184,-0.005112,0.999954,-0.000089,0.009637,0.000090,1.000000,-0.000037,-0.009637,0.000038,0.999954
08861,9.503330,-0.599529,2.598628,0.004818,0.002499,0.057751,0.000744,-0.005590,0.000498,0.397036,-0.332352,-0.808265,0.095033,-0.005995,0.025989,1.000000,0.000004,-0.000028,0.000002,0.999988,-0.000017,-0.004860,-0.000032,-0.001969,-0.556922,-0.003706,0.999953,-0.000065,0.009720,0.000065,1.000000,-0.000034,-0.009720,0.000035,0.999953
08862,9.541544,-0.575646,2.617151,0.002063,0.029949,0.097963,-0.002274,-0.007434,-0.000939,0.390318,-0.331817,-0.807577,0.095414,-0.005757,0.026175,1.000000,-0.000011,-0.000037,-0.000005,0.999988,-0.000017,-0.004911,-0.000037,-0.001945,-0.562815,-0.004200,0.999952,-0.000073,0.009823,0.000074,1.000000,-0.000034,-0.009823,0.000035,0.999952
08863,9.538432,-0.588070,2.576335,0.035995,0.008587,0.084971,-0.003035,-0.003357,-0.000689,0.398613,-0.336030,-0.801604,0.095384,-0.005881,0.025765,1.000000,-0.000015,-0.000017,-0.000003,0.999988,-0.000014,-0.004942,-0.000050,-0.001543,-0.566335,-0.005739,0.999951,-0.000100,0.009884,0.000100,1.000000,-0.000027,-0.009884,0.000028,0.999951
08864,9.525479,-0.589946,2.666664,-0.052993,0.027012,0.096417,-0.006045,0.002362,-0.002061,0.396352,-0.336378,-0.810862,0.095255,-0.005900,0.026666,1.000000,-0.000030,0.000012,-0.000010,0.999988,-0.000003,-0.004947,-0.000077,-0.000282,-0.566906,-0.008838,0.999951,-0.000154,0.009894,0.000154,1.000000,-0.000005,-0.009894,0.000006,0.999951
08865,9.507304,-0.572297,2.618596,-0.008911,0.033133,0.065178,-0.004559,0.004797,-0.000188,0.392042,-0.331451,-0.803757,0.095074,-0.005722,0.026184,1.000000,-0.000023,0.000024,-0.000001,0.999988,0.000006,-0.004936,-0.000099,0.000783,-0.565653,-0.011380,0.999951,-0.000199,0.009872,0.000198,1.000000,0.000014,-0.009872,-0.000012,0.999951
08866,9.507163,-0.572351,2.619097,-0.009191,0.032996,0.065178,-0.006807,0.006439,-0.001811,0.395286,-0.331126,-0.810806,0.095072,-0.005723,0.026188,1.000000,-0.000034,0.000032,-0.000009,0.999988,0.000019,-0.004921,-0.000131,0.002299,-0.563915,-0.015007,0.999952,-0.000262,0.009842,0.000262,1.000000,0.000040,-0.009842,-0.000038,0.999952
08867,9.526013,-0.560729,2.629223,-0.010700,0.046632,0.085285,-0.007705,0.005974,0.004492,0.396057,-0.331454,-0.801622,0.095261,-0.005604,0.026290,1.000000,-0.000039,0.000030,0.000022,0.999988,0.000002,-0.004900,-0.000163,0.000337,-0.561552,-0.018716,0.999952,-0.000327,0.009801,0.000327,1.000000,0.000006,-0.009801,-0.000003,0.999952
08868,9.491012,-0.572831,2.650976,-0.042702,0.040112,0.058062,-0.006953,0.007948,0.005055,0.393952,-0.332733,-0.801516,0.094911,-0.005725,0.026506,1.000000,-0.000035,0.000040,0.000025,0.999988,-0.000015,-0.004870,-0.000187,-0.001672,-0.558086,-0.021405,0.999952,-0.000374,0.009740,0.000374,1.000000,-0.000029,-0.009740,0.000033,0.999953
08869,9.525567,-0.561911,2.630588,-0.011227,0.046321,0.085286,-0.006136,0.008410,0.002559,0.393108,-0.330099,-0.810171,0.095257,-0.005617,0.026302,1.000000,-0.000031,0.000042,0.000013,0.999988,-0.000018,-0.004839,-0.000215,-0.001950,-0.554488,-0.024666,0.999953,-0.000430,0.009677,0.000431,1.000000,-0.000034,-0.009677,0.000038,0.999953
08870,9.475749,-0.543716,2.644248,-0.033105,0.067312,0.039818,-0.008438,0.005513,0.003181,0.387233,-0.332438,-0.812272,0.094758,-0.005435,0.026440,1.000000,-0.000042,0.000028,0.000016,0.999988,-0.000032,-0.004823,-0.000248,-0.003485,-0.552622,-0.028376,0.999953,-0.000495,0.009645,0.000496,1.000000,-0.000061,-0.009645,0.000066,0.999953
08871,9.472317,-0.556539,2.604551,0.000803,0.045966,0.026830,-0.006869,0.007949,0.001248,0.394840,-0.337165,-0.812710,0.094724,-0.005564,0.026042,1.000000,-0.000034,0.000040,0.000006,0.999988,-0.000031,-0.004797,-0.000278,-0.003378,-0.549752,-0.031845,0.999954,-0.000556,0.009595,0.000556,1.000000,-0.000059,-0.009595,0.000064,0.999954
08872,9.502251,-0.602246,2.601942,0.001819,0.000858,0.057752,-0.005356,0.005846,0.001560,0.397246,-0.339453,-0.808834,0.095023,-0.006021,0.026017,1.000000,-0.000027,0.000029,0.000008,0.999989,-0.000032,-0.004781,-0.000298,-0.003523,-0.547911,-0.034126,0.999954,-0.000596,0.009563,0.000596,1.000000,-0.000061,-0.009563,0.000067,0.999954
08873,9.486771,-0.587201,2.613848,-0.009862,0.018132,0.045072,-0.005337,0.007359,0.000812,0.391637,-0.336742,-0.813302,0.094869,-0.005871,0.026135,1.000000,-0.000027,0.000037,0.000004,0.999989,-0.000026,-0.004758,-0.000320,-0.002788,-0.545222,-0.036634,0.999955,-0.000639,0.009516,0.000640,1.000000,-0.000049,-0.009516,0.000055,0.999955
08874,9.524090,-0.578436,2.653213,-0.034176,0.035522,0.090847,-0.006117,0.009922,0.001812,0.391908,-0.327591,-0.806515,0.095242,-0.005783,0.026528,1.000000,-0.000031,0.000050,0.000009,0.999989,-0.000025,-0.004722,-0.000344,-0.002679,-0.541072,-0.039441,0.999955,-0.000688,0.009443,0.000689,1.000000,-0.000047,-0.009443,0.000053,0.999955
08875,9.505322,-0.575573,2.625064,-0.011674,0.031629,0.065180,-0.001438,0.008155,-0.003303,0.394601,-0.336962,-0.806537,0.095054,-0.005757,0.026247,1.000000,-0.000007,0.000041,-0.000017,0.999989,0.000005,-0.004700,-0.000355,0.000787,-0.538610,-0.040677,0.999956,-0.000710,0.009400,0.000710,1.000000,0.000014,-0.009400,-0.000007,0.999956
08876,9.520431,-0.590603,2.614523,-0.000536,0.014031,0.077861,0.000827,0.008025,-0.002427,0.390260,-0.332568,-0.811629,0.095205,-0.005907,0.026141,1.000000,0.000004,0.000040,-0.000012,0.999989,0.000033,-0.004678,-0.000351,0.004016,-0.536067,-0.040258,0.999956,-0.000703,0.009356,0.000702,1.000000,0.000070,-0.009356,-0.000064,0.999956
08877,9.576757,-0.569413,2.663598,-0.026103,0.045174,0.143744,-0.004482,0.010847,-0.003178,0.398930,-0.329205,-0.803476,0.095769,-0.005695,0.026631,1.000000,-0.000022,0.000054,-0.000016,0.999989,0.000063,-0.004643,-0.000375,0.007365,-0.532049,-0.043051,0.999957,-0.000751,0.009286,0.000750,1.000000,0.000129,-0.009286,-0.000122,0.999957
08878,9.575388,-0.599084,2.703778,-0.069472,0.024929,0.154856,-0.010616,0.019254,-0.000618,0.399545,-0.333033,-0.817897,0.095756,-0.005990,0.027029,1.000000,-0.000053,0.000096,-0.000003,0.999989,0.000079,-0.004564,-0.000428,0.009241,-0.523003,-0.049050,0.999958,-0.000856,0.009128,0.000855,1.000000,0.000161,-0.009128,-0.000153,0.999958
08879,9.504410,-0.560358,2.610845,0.008777,0.041088,0.059625,-0.003727,0.026429,-0.001728,0.386181,-0.332656,-0.807642,0.095048,-0.005604,0.026096,1.000000,-0.000019,0.000132,-0.000009,0.999990,0.000118,-0.004450,-0.000460,0.013741,-0.509930,-0.052723,0.999960,-0.000920,0.008900,0.000918,1.000000,0.000240,-0.008900,-0.000232,0.999960
08880,9.436323,-0.523810,2.577077,0.031248,0.068404,-0.017064,-0.001436,0.008154,-0.003302,0.387551,-0.339591,-0.801684,0.094364,-0.005239,0.025767,1.000000,-0.000007,0.000041,-0.000017,0.999990,0.000147,-0.004428,-0.000468,0.017103,-0.507428,-0.053689,0.999960,-0.000937,0.008856,0.000934,1.000000,0.000298,-0.008856,-0.000290,0.999961
08881,9.507544,-0.532689,2.633891,-0.004473,0.072015,0.067056,-0.002959,0.002695,-0.003683,0.398236,-0.333852,-0.800222,0.095076,-0.005328,0.026338,1.000000,-0.000015,0.000013,-0.000018,0.999990,0.000173,-0.004434,-0.000477,0.020030,-0.508145,-0.054759,0.999960,-0.000956,0.008869,0.000953,0.999999,0.000350,-0.008869,-0.000341,0.999961
08882,9.484721,-0.571686,2.603842,0.009166,0.026843,0.039518,-0.004518,0.007820,-0.001683,0.397300,-0.330560,-0.810631,0.094848,-0.005717,0.026035,1.000000,-0.000023,0.000039,-0.000008,0.999990,0.000190,-0.004412,-0.000498,0.022001,-0.505620,-0.057155,0.999961,-0.000998,0.008825,0.000994,0.999999,0.000384,-0.008825,-0.000375,0.999961
08883,9.452788,-0.570641,2.666339,-0.057003,0.041493,0.025261,-0.005220,0.016433,-0.003672,0.403374,-0.324378,-0.806553,0.094530,-0.005707,0.026656,1.000000,-0.000026,0.000082,-0.000018,0.999990,0.000226,-0.004349,-0.000534,0.026159,-0.498355,-0.061336,0.999962,-0.001070,0.008698,0.001067,0.999999,0.000457,-0.008698,-0.000447,0.999962
08884,9.436035,-0.585106,2.717909,-0.111786,0.038708,0.023681,-0.008388,0.016094,0.001753,0.393057,-0.329899,-0.814988,0.094363,-0.005849,0.027172,1.000000,-0.000042,0.000080,0.000009,0.999991,0.000231,-0.004283,-0.000572,0.026711,-0.490766,-0.065622,0.999963,-0.001145,0.008565,0.001141,0.999999,0.000466,-0.008566,-0.000456,0.999963
08885,9.398606,-0.579749,2.661310,-0.066454,0.031120,-0.027643,-0.014466,0.015429,0.001184,0.397388,-0.334310,-0.806333,0.093988,-0.005795,0.026606,1.000000,-0.000072,0.000077,0.000006,0.999991,0.000228,-0.004220,-0.000650,0.026475,-0.483520,-0.074599,0.999964,-0.001302,0.008439,0.001298,0.999999,0.000462,-0.008440,-0.000451,0.999964
08886,9.380325,-0.562615,2.613831,-0.022390,0.037307,-0.058855,-0.024370,0.006409,0.000848,0.400634,-0.338944,-0.816434,0.093804,-0.005623,0.026136,1.000000,-0.000122,0.000032,0.000004,0.999991,0.000205,-0.004202,-0.000762,0.023818,-0.481450,-0.087469,0.999964,-0.001527,0.008403,0.001523,0.999999,0.000416,-0.008403,-0.000403,0.999965
08887,9.376153,-0.605311,2.612077,-0.031519,-0.004169,-0.060735,-0.020577,-0.007918,0.000399,0.391951,-0.335587,-0.806019,0.093761,-0.006050,0.026125,1.000000,-0.000103,-0.000040,0.000002,0.999991,0.000175,-0.004253,-0.000856,0.020434,-0.487307,-0.098198,0.999962,-0.001714,0.008505,0.001711,0.999998,0.000357,-0.008506,-0.000342,0.999964
08888,9.449405,-0.570368,2.608691,-0.002600,0.029645,0.006730,-0.009926,-0.024140,-0.000483,0.396675,-0.326990,-0.804090,0.094491,-0.005703,0.026099,1.000000,-0.000050,-0.000121,-0.000002,0.999990,0.000144,-0.004385,-0.000891,0.016943,-0.502465,-0.102232,0.999960,-0.001784,0.008770,0.001782,0.999998,0.000296,-0.008770,-0.000280,0.999962
08889,9.503382,-0.562050,2.614223,0.006039,0.039593,0.059634,-0.009944,-0.025655,0.000265,0.390381,-0.340547,-0.814462,0.095030,-0.005619,0.026155,1.000000,-0.000050,-0.000128,0.000001,0.999989,0.000109,-0.004523,-0.000929,0.013000,-0.518302,-0.106569,0.999957,-0.001860,0.009046,0.001858,0.999998,0.000227,-0.009046,-0.000210,0.999959
08890,9.503486,-0.577017,2.631389,-0.015786,0.029400,0.065181,-0.014393,-0.019345,-0.004473,0.393024,-0.335259,-0.808875,0.095032,-0.005770,0.026323,1.000000,-0.000072,-0.000097,-0.000022,0.999989,0.000096,-0.004637,-0.000993,0.011558,-0.531300,-0.113855,0.999955,-0.001987,0.009273,0.001985,0.999998,0.000202,-0.009273,-0.000183,0.999957
08891,9.533734,-0.637262,2.645301,-0.036338,-0.025818,0.101637,-0.009122,-0.025193,-0.002229,0.390968,-0.334598,-0.805732,0.095334,-0.006372,0.026465,1.000000,-0.000046,-0.000126,-0.000011,0.999988,0.000076,-0.004777,-0.001023,0.009265,-0.547345,-0.117297,0.999952,-0.002047,0.009553,0.002046,0.999998,0.000162,-0.009553,-0.000142,0.999954
08892,9.585439,-0.611331,2.571935,0.049587,-0.016927,0.130474,-0.003804,-0.020453,-0.001406,0.391987,-0.333136,-0.810607,0.095852,-0.006113,0.025729,1.000000,-0.000019,-0.000102,-0.000007,0.999988,0.000062,-0.004892,-0.001031,0.007683,-0.560566,-0.118238,0.999950,-0.002064,0.009784,0.002062,0.999998,0.000134,-0.009784,-0.000114,0.999952
08893,9.569609,-0.625712,2.620363,-0.005202,-0.019748,0.128883,0.002265,-0.013740,-0.000019,0.393856,-0.337986,-0.805557,0.095694,-0.006257,0.026210,1.000000,0.000011,-0.000069,-0.000000,0.999987,0.000059,-0.004973,-0.001011,0.007319,-0.569882,-0.115882,0.999948,-0.002022,0.009946,0.002021,0.999998,0.000128,-0.009946,-0.000108,0.999951
08894,9.589363,-0.598998,2.609640,0.014802,0.003954,0.143450,-0.000807,-0.006514,0.001675,0.395570,-0.337275,-0.811906,0.095893,-0.005989,0.026100,1.000000,-0.000004,-0.000033,0.000008,0.999987,0.000050,-0.005017,-0.001005,0.006280,-0.574925,-0.115196,0.999948,-0.002010,0.010034,0.002009,0.999998,0.000110,-0.010034,-0.000089,0.999950
08895,9.539768,-0.580713,2.622498,-0.007035,0.024907,0.097975,0.001401,0.002427,0.005683,0.392546,-0.334250,-0.798817,0.095398,-0.005805,0.026224,1.000000,0.000007,0.000012,0.000028,0.999987,0.000037,-0.005012,-0.000986,0.004836,-0.574371,-0.112964,0.999948,-0.001971,0.010024,0.001971,0.999998,0.000084,-0.010025,-0.000065,0.999950
08896,9.540066,-0.566293,2.603703,0.014229,0.034827,0.092433,-0.003851,0.009788,0.002695,0.391815,-0.333777,-0.813354,0.095402,-0.005661,0.026032,1.000000,-0.000019,0.000049,0.000013,0.999987,0.000037,-0.004976,-0.000998,0.004806,-0.570182,-0.114382,0.999948,-0.001996,0.009951,0.001995,0.999998,0.000084,-0.009952,-0.000064,0.999950
08897,9.505457,-0.563387,2.606377,0.003801,0.038333,0.059640,-0.004649,0.010836,0.004444,0.398096,-0.335134,-0.805013,0.095056,-0.005631,0.026059,1.000000,-0.000023,0.000054,0.000022,0.999987,0.000030,-0.004932,-0.001013,0.004057,-0.565141,-0.116101,0.999949,-0.002026,0.009863,0.002026,0.999998,0.000071,-0.009864,-0.000051,0.999951
08898,9.520401,-0.579370,2.596219,0.014935,0.020734,0.072322,-0.003962,0.014316,0.008070,0.391820,-0.332057,-0.813864,0.095206,-0.005789,0.025955,1.000000,-0.000020,0.000072,0.000040,0.999988,0.000010,-0.004867,-0.001020,0.001685,-0.557730,-0.116904,0.999951,-0.002040,0.009734,0.002040,0.999998,0.000029,-0.009734,-0.000010,0.999953
08899,9.435563,-0.572862,2.631643,-0.038595,0.035335,-0.000408,-0.004610,0.013862,0.002951,0.398580,-0.333414,-0.803883,0.094358,-0.005727,0.026310,1.000000,-0.000023,0.000069,0.000015,0.999988,0.000013,-0.004810,-0.001040,0.002072,-0.551166,-0.119211,0.999952,-0.002081,0.009620,0.002080,0.999998,0.000036,-0.009620,-0.000016,0.999954
08900,9.469601,-0.576620,2.630865,-0.028723,0.031517,0.032386,-0.004620,0.006301,0.002877,0.386241,-0.332235,-0.808677,0.094697,-0.005764,0.026306,1.000000,-0.000023,0.000032,0.000014,0.999988,0.000007,-0.004790,-0.001055,0.001390,-0.548900,-0.120898,0.999952,-0.002110,0.009580,0.002110,0.999998,0.000024,-0.009580,-0.000004,0.999954
08901,9.469492,-0.576899,2.631197,-0.028998,0.031350,0.032386,-0.003062,0.001178,0.000873,0.401876,-0.334057,-0.806370,0.094695,-0.005768,0.026312,1.000000,-0.000015,0.000006,0.000004,0.999988,0.000009,-0.004797,-0.001065,0.001567,-0.549723,-0.122051,0.999952,-0.002130,0.009594,0.002130,0.999998,0.000027,-0.009594,-0.000007,0.999954
08902,9.488981,-0.550327,2.621479,-0.008997,0.055053,0.046961,-0.003081,-0.000336,0.001620,0.392007,-0.334473,-0.815699,0.094890,-0.005502,0.026215,1.000000,-0.000015,-0.000002,0.000008,0.999988,0.000003,-0.004811,-0.001072,0.000974,-0.551324,-0.122847,0.999951,-0.002144,0.009622,0.002144,0.999998,0.000017,-0.009622,0.000004,0.999954
08903,9.484248,-0.607536,2.639328,-0.039672,0.003525,0.050604,-0.001596,0.002096,0.003497,0.395140,-0.330540,-0.810000,0.094843,-0.006073,0.026392,1.000000,-0.000008,0.000010,0.000017,0.999988,-0.000005,-0.004810,-0.001074,0.000074,-0.551227,-0.123074,0.999951,-0.002148,0.009621,0.002148,0.999998,0.000001,-0.009621,0.000019,0.999954
08904,9.484237,-0.607823,2.639301,-0.039951,0.003388,0.050603,-0.003833,-0.002309,0.001054,0.390051,-0.337470,-0.802922,0.094842,-0.006077,0.026394,1.000000,-0.000019,-0.000012,0.000005,0.999988,-0.000010,-0.004835,-0.001085,-0.000577,-0.554002,-0.124301,0.999951,-0.002169,0.009669,0.002170,0.999998,-0.000010,-0.009669,0.000031,0.999953
08905,9.519122,-0.596720,2.617896,-0.008533,0.009592,0.077863,-0.000142,-0.004547,0.006046,0.393645,-0.337325,-0.796086,0.095191,-0.005964,0.026181,1.000000,-0.000001,-0.000023,0.000030,0.999988,-0.000035,-0.004864,-0.001071,-0.003407,-0.557345,-0.122735,0.999950,-0.002142,0.009727,0.002143,0.999998,-0.000059,-0.009727,0.000080,0.999953
08906,9.518115,-0.627367,2.656456,-0.051904,-0.010667,0.088932,-0.001051,0.001028,0.013169,0.393333,-0.337437,-0.810491,0.095182,-0.006267,0.026564,1.000000,-0.000005,0.000005,0.000066,0.999988,-0.000090,-0.004858,-0.001053,-0.009721,-0.556692,-0.120659,0.999951,-0.002106,0.009716,0.002108,0.999998,-0.000170,-0.009716,0.000190,0.999953
08907,9.517536,-0.643242,2.675867,-0.073710,-0.020925,0.094464,0.002095,-0.000144,0.008489,0.395776,-0.334456,-0.806371,0.095176,-0.006429,0.026759,1.000000,0.000010,-0.000001,0.000042,0.999988,-0.000117,-0.004862,-0.001025,-0.012835,-0.557178,-0.117405,0.999951,-0.002049,0.009724,0.002051,0.999998,-0.000224,-0.009724,0.000244,0.999953
08908,9.517965,-0.629359,2.656524,-0.052445,-0.011002,0.088929,0.000480,0.000438,0.012733,0.391535,-0.327115,-0.808186,0.095180,-0.006288,0.026565,1.000000,0.000002,0.000002,0.000064,0.999988,-0.000168,-0.004860,-0.001000,-0.018751,-0.556909,-0.114533,0.999951,-0.001999,0.009720,0.002002,0.999998,-0.000327,-0.009719,0.000347,0.999953
08909,9.517781,-0.630532,2.656906,-0.052716,-0.011158,0.088927,0.004288,0.007280,0.013247,0.394065,-0.334290,-0.809687,0.095179,-0.006300,0.026565,1.000000,0.000021,0.000036,0.000066,0.999988,-0.000209,-0.004823,-0.000963,-0.023393,-0.552701,-0.110229,0.999952,-0.001924,0.009646,0.001928,0.999998,-0.000408,-0.009645,0.000427,0.999953
08910,9.483183,-0.628434,2.659301,-0.063139,-0.007610,0.056128,0.005735,0.006683,0.016618,0.396586,-0.331291,-0.808896,0.094833,-0.006277,0.026590,1.000000,0.000029,0.000033,0.000083,0.999988,-0.000264,-0.004786,-0.000910,-0.029804,-0.548443,-0.104087,0.999953,-0.001817,0.009572,0.001822,0.999998,-0.000520,-0.009571,0.000538,0.999954
08911,9.464874,-0.612180,2.611677,-0.019043,-0.001426,0.024950,0.003408,0.008319,0.018803,0.388596,-0.334927,-0.807329,0.094650,-0.006113,0.026113,1.000000,0.000017,0.000042,0.000094,0.999988,-0.000330,-0.004737,-0.000869,-0.037401,-0.542909,-0.099378,0.999954,-0.001734,0.009475,0.001741,0.999998,-0.000653,-0.009474,0.000669,0.999955
08912,9.483011,-0.616888,2.641602,-0.042139,0.002152,0.050594,0.002631,0.010880,0.019806,0.397239,-0.325583,-0.811376,0.094832,-0.006160,0.026411,1.000000,0.000013,0.000054,0.000099,0.999989,-0.000401,-0.004676,-0.000827,-0.045483,-0.535896,-0.094601,0.999955,-0.001651,0.009353,0.001659,0.999998,-0.000794,-0.009352,0.000809,0.999956
08913,9.464167,-0.616122,2.613314,-0.019600,-0.001712,0.024948,-0.001345,0.004024,0.026907,0.393096,-0.327976,-0.808387,0.094643,-0.006148,0.026131,1.000000,-0.000007,0.000020,0.000135,0.999989,-0.000517,-0.004640,-0.000797,-0.058777,-0.531791,-0.091092,0.999956,-0.001590,0.009281,0.001599,0.999998,-0.001026,-0.009280,0.001041,0.999956
08914,9.448594,-0.602969,2.625151,-0.031290,0.015615,0.012265,-0.001136,0.007065,0.017800,0.384245,-0.340577,-0.805043,0.094487,-0.006021,0.026248,1.000000,-0.000006,0.000035,0.000089,0.999989,-0.000587,-0.004600,-0.000776,-0.066841,-0.527167,-0.088562,0.999956,-0.001546,0.009201,0.001556,0.999998,-0.001167,-0.009199,0.001181,0.999957
08915,9.467909,-0.578179,2.615838,-0.011309,0.039279,0.026852,-0.002013,0.002057,0.022535,0.400845,-0.331586,-0.806578,0.094680,-0.005771,0.026157,1.000000,-0.000010,0.000010,0.000113,0.999989,-0.000684,-0.004579,-0.000747,-0.077985,-0.524799,-0.085265,0.999957,-0.001488,0.009159,0.001501,0.999998,-0.001361,-0.009157,0.001375,0.999957
08916,9.429784,-0.603884,2.596374,-0.009040,0.011590,-0.013379,-0.002680,-0.005954,0.017341,0.400897,-0.322363,-0.803287,0.094298,-0.006030,0.025967,1.000000,-0.000013,-0.000030,0.000087,0.999989,-0.000768,-0.004603,-0.000729,-0.087661,-0.527501,-0.083177,0.999957,-0.001452,0.009206,0.001466,0.999998,-0.001530,-0.009204,0.001543,0.999956
08917,9.490721,-0.542854,2.645504,-0.025777,0.084013,0.054402,-0.002720,-0.008983,0.018834,0.397467,-0.330267,-0.809407,0.094907,-0.005419,0.026459,1.000000,-0.000014,-0.000045,0.000094,0.999989,-0.000863,-0.004637,-0.000721,-0.098469,-0.531415,-0.082134,0.999956,-0.001433,0.009275,0.001449,0.999997,-0.001719,-0.009272,0.001732,0.999956
08918,9.418889,-0.550218,2.608105,-0.012095,0.070077,-0.024155,-0.010287,0.000022,0.018031,0.399926,-0.330507,-0.812413,0.094189,-0.005492,0.026081,1.000000,-0.000051,0.000000,0.000090,0.999989,-0.000954,-0.004631,-0.000740,-0.108954,-0.530699,-0.084344,0.999956,-0.001472,0.009262,0.001490,0.999997,-0.001902,-0.009259,0.001915,0.999955
08919,9.448982,-0.597614,2.604121,-0.011074,0.024932,0.006737,-0.012570,-0.013454,0.016258,0.396978,-0.335517,-0.803161,0.094489,-0.005967,0.026048,1.000000,-0.000063,-0.000067,0.000081,0.999988,-0.001054,-0.004691,-0.000777,-0.120423,-0.537588,-0.088419,0.999955,-0.001543,0.009383,0.001563,0.999997,-0.002102,-0.009379,0.002116,0.999954
08920,9.506525,-0.563686,2.631117,-0.015182,0.066120,0.067086,-0.011752,-0.025083,0.012119,0.394765,-0.327320,-0.815740,0.095062,-0.005630,0.026323,1.000000,-0.000059,-0.000125,0.000061,0.999987,-0.001148,-0.004813,-0.000803,-0.131082,-0.551652,-0.091418,0.999952,-0.001595,0.009628,0.001618,0.999996,-0.002288,-0.009624,0.002303,0.999951
08921,9.605702,-0.617568,2.622051,0.006091,0.013582,0.163576,-0.019316,-0.022124,0.010497,0.394649,-0.330227,-0.802991,0.096054,-0.006168,0.026232,1.000000,-0.000097,-0.000111,0.000052,0.999987,-0.001239,-0.004922,-0.000874,-0.141522,-0.564188,-0.099415,0.999950,-0.001735,0.009847,0.001759,0.999995,-0.002470,-0.009842,0.002487,0.999948
08922,9.590301,-0.618398,2.651017,-0.027147,0.020844,0.156416,-0.016907,-0.011659,0.006149,0.389859,-0.332145,-0.802611,0.095902,-0.006179,0.026516,1.000000,-0.000085,-0.000058,0.000031,0.999986,-0.001297,-0.004986,-0.000937,-0.148099,-0.571542,-0.106681,0.999949,-0.001862,0.009975,0.001888,0.999995,-0.002585,-0.009970,0.002603,0.999947
08923,9.602556,-0.646860,2.598216,0.018229,-0.017973,0.156143,-0.018334,-0.009545,0.002032,0.395919,-0.331289,-0.799547,0.096024,-0.006465,0.025987,1.000000,-0.000092,-0.000048,0.000010,0.999986,-0.001333,-0.005044,-0.001016,-0.152194,-0.578156,-0.115633,0.999947,-0.002018,0.010091,0.002045,0.999994,-0.002656,-0.010085,0.002677,0.999946
08924,9.602136,-0.662440,2.616994,-0.003599,-0.028176,0.161664,-0.015294,-0.000146,0.003552,0.397578,-0.327468,-0.812237,0.096021,-0.006621,0.026171,1.000000,-0.000076,-0.000001,0.000018,0.999986,-0.001364,-0.005055,-0.001079,-0.155691,-0.579420,-0.122849,0.999947,-0.002144,0.010113,0.002172,0.999994,-0.002717,-0.010107,0.002739,0.999945
08925,9.601952,-0.663260,2.617459,-0.003851,-0.028341,0.161664,-0.015292,0.011948,0.005200,0.393899,-0.336394,-0.804044,0.096021,-0.006628,0.026169,1.000000,-0.000076,0.000060,0.000026,0.999986,-0.001388,-0.005003,-0.001150,-0.158417,-0.573543,-0.130971,0.999947,-0.002286,0.010010,0.002314,0.999994,-0.002765,-0.010004,0.002788,0.999946
08926,9.532931,-0.657153,2.622160,-0.024388,-0.021095,0.096062,-0.010703,0.016224,0.004713,0.392653,-0.327939,-0.805461,0.095332,-0.006568,0.026214,1.000000,-0.000054,0.000081,0.000024,0.999986,-0.001400,-0.004933,-0.001195,-0.159791,-0.565514,-0.136098,0.999948,-0.002375,0.009870,0.002403,0.999993,-0.002789,-0.009863,0.002812,0.999947
08927,9.494894,-0.666783,2.585058,-0.000544,-0.038753,0.050306,-0.011497,0.017270,0.006463,0.397449,-0.325069,-0.806605,0.094951,-0.006663,0.025843,1.000000,-0.000057,0.000086,0.000032,0.999986,-0.001418,-0.004855,-0.001242,-0.161858,-0.556582,-0.141552,0.999950,-0.002470,0.009714,0.002498,0.999993,-0.002825,-0.009707,0.002849,0.999949
08928,9.494894,-0.652715,2.567493,0.020724,-0.028824,0.044787,-0.009170,0.021679,0.005102,0.394466,-0.330522,-0.815907,0.094952,-0.006524,0.025665,1.000000,-0.000046,0.000108,0.000026,0.999987,-0.001424,-0.004758,-0.001281,-0.162526,-0.545456,-0.145982,0.999951,-0.002548,0.009520,0.002575,0.999993,-0.002836,-0.009513,0.002861,0.999951
08929,9.425172,-0.661342,2.592115,-0.021342,-0.031648,-0.015298,-0.006131,0.018983,0.004974,0.401249,-0.330124,-0.813562,0.094254,-0.006610,0.025912,1.000000,-0.000031,0.000095,0.000025,0.999987,-0.001428,-0.004674,-0.001310,-0.162940,-0.535787,-0.149365,0.999953,-0.002607,0.009351,0.002633,0.999992,-0.002844,-0.009344,0.002868,0.999952
08930,9.424750,-0.662078,2.593462,-0.021619,-0.031784,-0.015299,-0.000915,0.010097,0.008702,0.394565,-0.328179,-0.810342,0.094249,-0.006617,0.025930,1.000000,-0.000005,0.000050,0.000044,0.999987,-0.001452,-0.004629,-0.001300,-0.165704,-0.530646,-0.148256,0.999954,-0.002587,0.009261,0.002614,0.999992,-0.002892,-0.009254,0.002916,0.999953
08931,9.408769,-0.662345,2.624575,-0.054833,-0.024535,-0.022467,0.000630,-0.001071,0.005867,0.388149,-0.330773,-0.810505,0.094088,-0.006621,0.026246,1.000000,0.000003,-0.000005,0.000029,0.999987,-0.001472,-0.004641,-0.001290,-0.168010,-0.532002,-0.147028,0.999954,-0.002566,0.009285,0.002593,0.999992,-0.002932,-0.009277,0.002956,0.999953
08932,9.408793,-0.662951,2.624335,-0.055110,-0.024671,-0.022469,0.000588,-0.004100,0.007357,0.390296,-0.332530,-0.807062,0.094088,-0.006626,0.026245,1.000000,0.000003,-0.000020,0.000037,0.999987,-0.001503,-0.004666,-0.001270,-0.171584,-0.534955,-0.144765,0.999953,-0.002527,0.009337,0.002555,0.999992,-0.002995,-0.009329,0.003018,0.999952
08933,9.428562,-0.636852,2.613881,-0.035141,-0.001000,-0.007867,-0.000170,-0.012116,0.005964,0.389685,-0.324809,-0.813750,0.094284,-0.006366,0.026145,1.000000,-0.000001,-0.000061,0.000030,0.999987,-0.001536,-0.004734,-0.001252,-0.175345,-0.542656,-0.142585,0.999952,-0.002488,0.009471,0.002518,0.999992,-0.003060,-0.009463,0.003084,0.999950
08934,9.481741,-0.643869,2.639720,-0.048131,-0.001129,0.050567,0.001356,-0.018753,0.004700,0.392312,-0.338131,-0.805361,0.094815,-0.006437,0.026406,1.000000,0.000007,-0.000094,0.000024,0.999986,-0.001570,-0.004834,-0.001227,-0.179196,-0.554130,-0.139757,0.999950,-0.002439,0.009671,0.002469,0.999992,-0.003127,-0.009664,0.003151,0.999948
08935,9.551435,-0.636266,2.614974,-0.006630,0.001380,0.110658,-0.000888,-0.023152,0.002254,0.384147,-0.328868,-0.814170,0.095511,-0.006361,0.026161,1.000000,-0.000004,-0.000116,0.000011,0.999986,-0.001598,-0.004958,-0.001215,-0.182457,-0.568421,-0.138315,0.999948,-0.002414,0.009921,0.002446,0.999992,-0.003184,-0.009913,0.003208,0.999946
08936,9.624429,-0.616152,2.630418,0.000633,0.025086,0.183699,-0.000050,-0.021170,-0.000987,0.401803,-0.326957,-0.805331,0.096241,-0.006162,0.026314,1.000000,-0.000000,-0.000106,-0.000005,0.999985,-0.001610,-0.005077,-0.001204,-0.183771,-0.581983,-0.137055,0.999946,-0.002392,0.010157,0.002425,0.999992,-0.003207,-0.010150,0.003232,0.999943
08937,9.571481,-0.624633,2.620948,-0.008477,0.014861,0.130777,-0.005407,-0.010792,0.002157,0.388356,-0.322721,-0.809294,0.095713,-0.006245,0.026215,1.000000,-0.000027,-0.000054,0.000011,0.999985,-0.001631,-0.005141,-0.001222,-0.186237,-0.589337,-0.139100,0.999944,-0.002428,0.010286,0.002461,0.999992,-0.003250,-0.010278,0.003275,0.999942
08938,9.586357,-0.654964,2.628299,-0.018901,-0.012812,0.148972,-0.005282,-0.001703,-0.002316,0.392457,-0.325342,-0.816339,0.095863,-0.006550,0.026284,1.000000,-0.000026,-0.000009,-0.000012,0.999985,-0.001623,-0.005166,-0.001245,-0.185224,-0.592218,-0.141663,0.999944,-0.002472,0.010336,0.002506,0.999992,-0.003233,-0.010328,0.003258,0.999941
08939,9.557005,-0.594792,2.612018,0.001086,0.042132,0.112583,-0.004669,-0.004289,0.004296,0.395232,-0.322378,-0.807484,0.095570,-0.005945,0.026122,1.000000,-0.000023,-0.000021,0.000021,0.999984,-0.001648,-0.005197,-0.001260,-0.188052,-0.595776,-0.143361,0.999943,-0.002502,0.010398,0.002536,0.999991,-0.003282,-0.010390,0.003308,0.999941
08940,9.590236,-0.628403,2.648899,-0.032176,0.018158,0.156406,-0.004566,0.003285,0.000568,0.393215,-0.330392,-0.810456,0.095903,-0.006283,0.026488,1.000000,-0.000023,0.000016,0.000003,0.999984,-0.001646,-0.005195,-0.001276,-0.187858,-0.595497,-0.145271,0.999943,-0.002535,0.010393,0.002570,0.999991,-0.003279,-0.010385,0.003305,0.999941
08941,9.587327,-0.625864,2.589842,0.023346,0.006914,0.137953,-0.009804,0.010659,-0.002412,0.394353,-0.320748,-0.804685,0.095875,-0.006259,0.025894,1.000000,-0.000049,0.000053,-0.000012,0.999984,-0.001629,-0.005159,-0.001331,-0.185899,-0.591426,-0.151507,0.999943,-0.002644,0.010322,0.002678,0.999991,-0.003244,-0.010313,0.003272,0.999941
08942,9.533096,-0.649217,2.602436,-0.007306,-0.013362,0.090537,-0.007558,0.015056,0.000035,0.394170,-0.334253,-0.804886,0.095333,-0.006491,0.026017,1.000000,-0.000038,0.000075,0.000000,0.999985,-0.001616,-0.005100,-0.001366,-0.184416,-0.584652,-0.155593,0.999944,-0.002715,0.010204,0.002748,0.999991,-0.003218,-0.010195,0.003246,0.999943
08943,9.499522,-0.615964,2.566767,0.025419,0.010316,0.046718,-0.005968,0.012964,-0.003466,0.391500,-0.335733,-0.802073,0.094997,-0.006161,0.025662,1.000000,-0.000030,0.000065,-0.000017,0.999985,-0.001586,-0.005054,-0.001403,-0.180935,-0.579372,-0.159854,0.999945,-0.002790,0.010112,0.002822,0.999991,-0.003158,-0.010103,0.003186,0.999944
08944,9.517638,-0.618881,2.597234,0.002299,0.013878,0.072345,-0.008228,0.019144,-0.003513,0.396672,-0.328875,-0.806124,0.095179,-0.006189,0.025963,1.000000,-0.000041,0.000096,-0.000018,0.999985,-0.001553,-0.004979,-0.001448,-0.177141,-0.570778,-0.165016,0.999946,-0.002880,0.009962,0.002911,0.999991,-0.003092,-0.009953,0.003120,0.999946
08945,9.494373,-0.657700,2.568148,0.016031,-0.031306,0.044789,-0.007475,0.015067,-0.003772,0.392126,-0.328870,-0.798441,0.094946,-0.006578,0.025675,1.000000,-0.000037,0.000075,-0.000019,0.999986,-0.001520,-0.004923,-0.001489,-0.173334,-0.564361,-0.169771,0.999947,-0.002963,0.009850,0.002993,0.999991,-0.003025,-0.009841,0.003054,0.999947
08946,9.478818,-0.642269,2.580625,0.004349,-0.013975,0.032104,-0.002217,0.009209,-0.001537,0.393452,-0.335059,-0.812051,0.094789,-0.006423,0.025802,1.000000,-0.000011,0.000046,-0.000008,0.999986,-0.001499,-0.004894,-0.001499,-0.170908,-0.561045,-0.170941,0.999948,-0.002983,0.009792,0.003013,0.999991,-0.002983,-0.009783,0.003012,0.999948
08947,9.462835,-0.641378,2.612058,-0.028870,-0.006756,0.024923,0.003246,0.006408,-0.008408,0.395608,-0.325160,-0.806577,0.094629,-0.006418,0.026117,1.000000,0.000016,0.000032,-0.000042,0.999986,-0.001439,-0.004886,-0.001491,-0.164055,-0.560104,-0.170106,0.999948,-0.002969,0.009776,0.002997,0.999991,-0.002863,-0.009767,0.002892,0.999948
08948,9.478597,-0.641086,2.581732,0.003804,-0.014288,0.032104,0.001632,0.000938,-0.004991,0.395809,-0.325069,-0.812230,0.094786,-0.006413,0.025817,1.000000,0.000008,0.000005,-0.000025,0.999986,-0.001405,-0.004901,-0.001485,-0.160205,-0.561845,-0.169384,0.999948,-0.002956,0.009806,0.002984,0.999992,-0.002796,-0.009798,0.002825,0.999948
08949,9.479749,-0.610706,2.543020,0.046635,0.005717,0.021099,0.008461,-0.002479,-0.004683,0.386736,-0.336664,-0.809584,0.094797,-0.006110,0.025431,1.000000,0.000042,-0.000012,-0.000023,0.999986,-0.001367,-0.004932,-0.001452,-0.155884,-0.565367,-0.165623,0.999947,-0.002891,0.009867,0.002917,0.999992,-0.002721,-0.009859,0.002749,0.999948
08950,9.500461,-0.630587,2.650900,-0.053834,0.010294,0.070666,0.012274,-0.001688,-0.004990,0.393258,-0.326990,-0.815809,0.095004,-0.006310,0.026509,1.000000,0.000061,-0.000008,-0.000025,0.999986,-0.001322,-0.004960,-0.001394,-0.150713,-0.568558,-0.158948,0.999947,-0.002774,0.009923,0.002800,0.999993,-0.002630,-0.009916,0.002658,0.999947
08951,9.497880,-0.627140,2.591038,0.001666,-0.000957,0.052225,0.013782,-0.003793,-0.004682,0.394160,-0.333064,-0.805900,0.094978,-0.006275,0.025912,1.000000,0.000069,-0.000019,-0.000023,0.999986,-0.001277,-0.004999,-0.001326,-0.145596,-0.572984,-0.151170,0.999947,-0.002638,0.010000,0.002664,0.999993,-0.002541,-0.009994,0.002568,0.999947
08952,9.513821,-0.626625,2.560099,0.034338,-0.008489,0.059410,0.014599,-0.003325,-0.007177,0.393559,-0.332533,-0.807505,0.095138,-0.006272,0.025602,1.000000,0.000073,-0.000017,-0.000036,0.999986,-0.001220,-0.005037,-0.001258,-0.139094,-0.577371,-0.143497,0.999946,-0.002504,0.010077,0.002529,0.999994,-0.002428,-0.010071,0.002453,0.999946
08953,9.533452,-0.598920,2.550492,0.054324,0.015173,0.074033,0.013072,0.003310,-0.005913,0.388598,-0.326875,-0.806821,0.095335,-0.005994,0.025503,1.000000,0.000065,0.000017,-0.000030,0.999986,-0.001162,-0.005041,-0.001200,-0.132457,-0.577804,-0.136845,0.999946,-0.002388,0.010084,0.002412,0.999994,-0.002312,-0.010079,0.002336,0.999946
08954,9.532769,-0.612870,2.570568,0.032495,0.004964,0.079534,0.014625,0.010280,-0.006269,0.398198,-0.331749,-0.806569,0.095329,-0.006134,0.025700,1.000000,0.000073,0.000051,-0.000031,0.999986,-0.001094,-0.005012,-0.001136,-0.124745,-0.574482,-0.129526,0.999947,-0.002261,0.010026,0.002282,0.999995,-0.002177,-0.010021,0.002200,0.999947
08955,9.533118,-0.596985,2.552193,0.053775,0.014879,0.074037,0.011608,0.008442,-0.007711,0.392410,-0.326439,-0.810222,0.095332,-0.005975,0.025518,1.000000,0.000058,0.000042,-0.000039,0.999986,-0.001025,-0.004993,-0.001091,-0.116833,-0.572308,-0.124458,0.999948,-0.002172,0.009988,0.002193,0.999996,-0.002039,-0.009984,0.002061,0.999948
08956,9.547080,-0.641128,2.580571,0.021799,-0.022872,0.097718,0.011568,0.011459,-0.005394,0.388027,-0.331251,-0.822167,0.095472,-0.006415,0.025800,1.000000,0.000058,0.000057,-0.000027,0.999987,-0.000964,-0.004958,-0.001041,-0.109918,-0.568220,-0.118727,0.999949,-0.002072,0.009917,0.002091,0.999996,-0.001918,-0.009913,0.001939,0.999949
08957,9.516207,-0.609764,2.604622,-0.001310,0.011927,0.072348,0.009285,0.016123,-0.004699,0.388482,-0.328377,-0.814925,0.095164,-0.006101,0.026038,1.000000,0.000046,0.000081,-0.000023,0.999987,-0.000905,-0.004900,-0.001004,-0.103152,-0.561585,-0.114558,0.999950,-0.001999,0.009801,0.002017,0.999996,-0.001800,-0.009798,0.001820,0.999950
08958,9.512055,-0.636364,2.585204,0.011114,-0.019441,0.064910,0.008469,0.015655,-0.002203,0.398390,-0.333048,-0.806625,0.095123,-0.006366,0.025844,1.000000,0.000042,0.000078,-0.000011,0.999987,-0.000859,-0.004840,-0.000966,-0.097909,-0.554747,-0.110189,0.999951,-0.001923,0.009682,0.001940,0.999997,-0.001709,-0.009679,0.001727,0.999952
08959,9.530754,-0.624035,2.596210,0.009534,-0.005833,0.085033,0.004697,0.011845,-0.004213,0.398410,-0.336196,-0.804851,0.095309,-0.006243,0.025956,1.000000,0.000023,0.000059,-0.000021,0.999988,-0.000812,-0.004801,-0.000950,-0.092544,-0.550284,-0.108418,0.999952,-0.001892,0.009604,0.001908,0.999997,-0.001615,-0.009601,0.001633,0.999953
08960,9.496113,-0.620065,2.599204,-0.000844,-0.002264,0.052225,0.010000,0.015063,-0.002638,0.397130,-0.334548,-0.807021,0.094963,-0.006203,0.025985,1.000000,0.000050,0.000075,-0.000013,0.999988,-0.000763,-0.004745,-0.000905,-0.086903,-0.543831,-0.103252,0.999953,-0.001802,0.009491,0.001816,0.999997,-0.001517,-0.009489,0.001534,0.999954
08961,9.480511,-0.604306,2.611798,-0.012490,0.015021,0.039540,0.000884,0.011053,-0.003908,0.386579,-0.330938,-0.818439,0.094806,-0.006045,0.026113,1.000000,0.000004,0.000055,-0.000020,0.999988,-0.000722,-0.004708,-0.000906,-0.082222,-0.539592,-0.103451,0.999954,-0.001805,0.009418,0.001819,0.999997,-0.001435,-0.009415,0.001452,0.999955
08962,9.495563,-0.619315,2.601390,-0.001369,-0.002584,0.052225,0.005367,0.007760,-0.000662,0.399388,-0.338904,-0.804627,0.094957,-0.006194,0.026010,1.000000,0.000027,0.000039,-0.000003,0.999988,-0.000696,-0.004685,-0.000878,-0.079269,-0.536964,-0.100253,0.999955,-0.001750,0.009372,0.001763,0.999997,-0.001383,-0.009369,0.001400,0.999955
08963,9.513336,-0.636918,2.650317,-0.046055,-0.009143,0.083332,0.005387,0.003228,-0.002233,0.392982,-0.328635,-0.807337,0.095134,-0.006371,0.026501,1.000000,0.000027,0.000016,-0.000011,0.999988,-0.000666,-0.004686,-0.000850,-0.075846,-0.537079,-0.097084,0.999955,-0.001694,0.009374,0.001707,0.999998,-0.001324,-0.009371,0.001340,0.999955
08964,9.517587,-0.594658,2.652181,-0.037492,0.032025,0.085278,-0.002241,0.001647,-0.001623,0.393613,-0.327666,-0.809555,0.095176,-0.005947,0.026521,1.000000,-0.000011,0.000008,-0.000008,0.999988,-0.000653,-0.004694,-0.000858,-0.074319,-0.537994,-0.097996,0.999954,-0.001710,0.009390,0.001723,0.999998,-0.001297,-0.009387,0.001313,0.999955
08965,9.514327,-0.606853,2.612160,-0.003512,0.010727,0.072349,0.000798,0.004998,-0.000924,0.394418,-0.329040,-0.816402,0.095144,-0.006069,0.026119,1.000000,0.000004,0.000025,-0.000005,0.999988,-0.000634,-0.004685,-0.000857,-0.072240,-0.536921,-0.097842,0.999955,-0.001708,0.009371,0.001719,0.999998,-0.001261,-0.009369,0.001277,0.999955
08966,9.514738,-0.591879,2.593380,0.017758,0.020666,0.066859,-0.000710,0.007101,-0.001234,0.398341,-0.329591,-0.811443,0.095148,-0.005919,0.025930,1.000000,-0.000004,0.000036,-0.000006,0.999989,-0.000615,-0.004666,-0.000859,-0.070005,-0.534739,-0.098052,0.999955,-0.001711,0.009333,0.001723,0.999998,-0.001222,-0.009331,0.001238,0.999956
08967,9.518792,-0.549848,2.595915,0.026327,0.061831,0.068810,-0.004522,0.012355,-0.000105,0.396799,-0.329901,-0.813790,0.095190,-0.005498,0.025953,1.000000,-0.000023,0.000062,-0.000001,0.999989,-0.000600,-0.004620,-0.000885,-0.068301,-0.529444,-0.101110,0.999956,-0.001765,0.009240,0.001776,0.999998,-0.001192,-0.009238,0.001208,0.999957
08968,9.551006,-0.598244,2.653721,-0.028513,0.027756,0.118086,-0.019733,0.018261,0.000447,0.399041,-0.341228,-0.803000,0.095512,-0.005980,0.026529,1.000000,-0.000099,0.000091,0.000002,0.999989,-0.000603,-0.004544,-0.000980,-0.068536,-0.520828,-0.111933,0.999957,-0.001954,0.009090,0.001964,0.999997,-0.001196,-0.009088,0.001214,0.999958
08969,9.482960,-0.561903,2.620234,-0.005847,0.055150,0.041490,-0.016562,0.024648,-0.004151,0.391350,-0.333850,-0.812201,0.094833,-0.005619,0.026191,1.000000,-0.000083,0.000123,-0.000021,0.999989,-0.000570,-0.004442,-0.001069,-0.064778,-0.509086,-0.122260,0.999958,-0.002134,0.008885,0.002144,0.999997,-0.001131,-0.008883,0.001150,0.999960
08970,9.409309,-0.534687,2.486417,0.106863,0.050360,-0.066442,-0.012687,0.011848,-0.009169,0.398042,-0.327999,-0.811101,0.094094,-0.005350,0.024859,1.000000,-0.000063,0.000059,-0.000046,0.999989,-0.000525,-0.004409,-0.001141,-0.059553,-0.505289,-0.130471,0.999959,-0.002277,0.008819,0.002286,0.999997,-0.001039,-0.008816,0.001059,0.999961
08971,9.468405,-0.516048,2.594482,0.025296,0.092486,0.017834,-0.012758,-0.010824,-0.009414,0.390687,-0.332368,-0.814805,0.094682,-0.005163,0.025950,1.000000,-0.000064,-0.000054,-0.000047,0.999989,-0.000502,-0.004486,-0.001209,-0.056947,-0.514173,-0.138332,0.999957,-0.002414,0.008974,0.002423,0.999997,-0.000994,-0.008971,0.001016,0.999959
08972,9.517157,-0.563880,2.619342,0.003401,0.051015,0.074303,-0.012691,-0.006284,-0.011649,0.391246,-0.329093,-0.816494,0.095170,-0.005643,0.026197,1.000000,-0.000063,-0.000031,-0.000058,0.999989,-0.000465,-0.004544,-0.001278,-0.052644,-0.520816,-0.146266,0.999955,-0.002553,0.009090,0.002561,0.999996,-0.000919,-0.009087,0.000942,0.999958
08973,9.460856,-0.583786,2.570449,0.028583,0.019675,0.008443,-0.009652,-0.002933,-0.010948,0.397308,-0.332791,-0.802495,0.094608,-0.005842,0.025706,1.000000,-0.000048,-0.000015,-0.000055,0.999989,-0.000423,-0.004586,-0.001334,-0.047795,-0.525635,-0.152674,0.999954,-0.002665,0.009174,0.002672,0.999996,-0.000834,-0.009172,0.000859,0.999958
08974,9.480841,-0.618482,2.697724,-0.093470,0.014135,0.063427,-0.014196,0.001861,-0.011129,0.389841,-0.331982,-0.811761,0.094808,-0.006188,0.026977,1.000000,-0.000071,0.000009,-0.000056,0.999988,-0.000382,-0.004604,-0.001412,-0.042990,-0.527664,-0.161655,0.999954,-0.002821,0.009209,0.002828,0.999996,-0.000750,-0.009207,0.000776,0.999957
08975,9.473980,-0.657303,2.636500,-0.046770,-0.038409,0.043063,-0.014993,0.002906,-0.009380,0.394919,-0.323895,-0.801035,0.094740,-0.006575,0.026364,1.000000,-0.000075,0.000015,-0.000047,0.999988,-0.000347,-0.004614,-0.001494,-0.038953,-0.528840,-0.171043,0.999953,-0.002985,0.009230,0.002992,0.999995,-0.000680,-0.009228,0.000707,0.999957
08976,9.391706,-0.590030,2.593289,-0.013962,0.016585,-0.051696,-0.018783,0.003625,-0.009820,0.388330,-0.329949,-0.808777,0.093917,-0.005902,0.025932,1.000000,-0.000094,0.000018,-0.000049,0.999988,-0.000316,-0.004622,-0.001593,-0.035345,-0.529716,-0.182408,0.999952,-0.003183,0.009245,0.003189,0.999995,-0.000617,-0.009243,0.000646,0.999957
