// General information: 
//  MT Manager version: 2020.3.0 
//  XDA version: 2020.3.0 build 5439 rev 106958 built on 2020-11-10
// Device information: 
//  DeviceId: 00B46A02
//  ProductCode: MTW2-3A7G6
//  Firmware Version: 4.4.0
//  Hardware Version: 2.0.0
// Device settings: 
//  Filter Profile: human(46.1)
//  Option Flags: Orientation Smoother Disabled, Position/Velocity Smoother Disabled, Continuous Zero Rotation Update Disabled, AHS Disabled, ICC Disabled
// Coordinate system: ENU
PacketCounter,StatusWord,ClippingFlags,RSSI,Acc_X,Acc_Y,Acc_Z,FreeAcc_E,FreeAcc_N,FreeAcc_U,Gyr_X,Gyr_Y,Gyr_Z,Mag_X,Mag_Y,Mag_Z,VelInc_X,VelInc_Y,VelInc_Z,OriInc_q0,OriInc_q1,OriInc_q2,OriInc_q3,Quat_q0,Quat_q1,Quat_q2,Quat_q3,Roll,Pitch,Yaw,Mat[1][1],Mat[2][1],Mat[3][1],Mat[1][2],Mat[2][2],Mat[3][2],Mat[1][3],Mat[2][3],Mat[3][3]
30829,2,0,-66.0000,9.613386,-1.027583,-1.793919,0.071724,-0.110932,0.019596,0.017285,-0.006746,-0.018894,-0.062180,-0.540298,-0.914439,0.096133,-0.010283,-0.017937,1.000000,0.000086,-0.000034,-0.000094,0.999972,0.000533,-0.006403,0.003855,0.058299,-0.733916,0.441423,0.999888,0.007704,0.012809,-0.007717,0.999970,0.001017,-0.012801,-0.001116,0.999917
30830,2,0,-66.0000,9.623208,-1.076806,-1.811806,0.032755,-0.077980,0.038258,0.006356,-0.006866,-0.019006,-0.056801,-0.543507,-0.913199,0.096232,-0.010777,-0.018115,1.000000,0.000032,-0.000034,-0.000095,0.999972,0.000454,-0.006416,0.003883,0.049213,-0.735387,0.444625,0.999888,0.007759,0.012835,-0.007771,0.999969,0.000859,-0.012828,-0.000959,0.999917
30831,2,0,-66.0000,9.589355,-1.078854,-1.752232,0.072813,-0.042509,-0.005401,0.003397,-0.003792,-0.014188,-0.066790,-0.537072,-0.908586,0.095893,-0.010795,-0.017521,1.000000,0.000017,-0.000019,-0.000071,0.999972,0.000401,-0.006428,0.003869,0.043069,-0.736754,0.443080,0.999887,0.007732,0.012858,-0.007743,0.999970,0.000752,-0.012852,-0.000851,0.999917
30832,2,0,-66.0000,9.636548,-1.092220,-1.786437,0.047806,-0.048861,0.048483,0.002318,-0.005366,-0.012352,-0.063081,-0.529538,-0.904694,0.096365,-0.010928,-0.017862,1.000000,0.000012,-0.000027,-0.000062,0.999972,0.000348,-0.006429,0.003870,0.037068,-0.736892,0.443187,0.999887,0.007734,0.012861,-0.007743,0.999970,0.000647,-0.012855,-0.000746,0.999917
30833,2,0,-66.0000,9.593693,-1.132238,-1.793641,0.011167,-0.018355,0.012668,0.005252,-0.003270,-0.011352,-0.064309,-0.538858,-0.919455,0.095937,-0.011327,-0.017935,1.000000,0.000026,-0.000016,-0.000057,0.999972,0.000308,-0.006439,0.003906,0.032362,-0.738003,0.447356,0.999887,0.007807,0.012880,-0.007815,0.999969,0.000565,-0.012875,-0.000665,0.999917
30834,2,0,-66.0000,9.616257,-1.124621,-1.800710,0.014252,-0.027759,0.035092,0.005497,-0.004787,-0.011258,-0.061091,-0.539344,-0.908425,0.096162,-0.011251,-0.018005,1.000000,0.000027,-0.000024,-0.000056,0.999972,0.000265,-0.006440,0.003920,0.027446,-0.738083,0.449075,0.999886,0.007837,0.012882,-0.007844,0.999969,0.000479,-0.012877,-0.000580,0.999917
30835,2,0,-66.0000,9.661341,-1.110361,-1.814455,0.020217,-0.046361,0.079941,0.005007,-0.001754,-0.011448,-0.058112,-0.537593,-0.913642,0.096613,-0.011109,-0.018144,1.000000,0.000025,-0.000009,-0.000057,0.999971,0.000228,-0.006455,0.003933,0.023239,-0.739782,0.450600,0.999886,0.007864,0.012911,-0.007870,0.999969,0.000406,-0.012908,-0.000507,0.999917
30836,2,0,-66.0000,9.627845,-1.125834,-1.854248,-0.028151,-0.054619,0.056323,0.008119,0.000497,-0.008923,-0.058030,-0.531186,-0.919431,0.096278,-0.011262,-0.018543,1.000000,0.000041,0.000002,-0.000045,0.999971,0.000212,-0.006472,0.003956,0.021342,-0.741692,0.453147,0.999885,0.007908,0.012945,-0.007914,0.999969,0.000372,-0.012941,-0.000475,0.999916
30837,2,0,-66.0000,9.608869,-1.098978,-1.803846,0.022984,-0.049155,0.025455,0.003439,-0.000295,-0.009801,-0.072818,-0.536709,-0.912933,0.096088,-0.010994,-0.018039,1.000000,0.000017,-0.000001,-0.000049,0.999971,0.000180,-0.006486,0.003929,0.017727,-0.743273,0.450164,0.999885,0.007856,0.012972,-0.007861,0.999969,0.000309,-0.012969,-0.000411,0.999916
30838,2,0,-66.0000,9.603397,-1.103131,-1.827163,0.000340,-0.057982,0.024858,0.010288,-0.002168,-0.007423,-0.067198,-0.536158,-0.902720,0.096034,-0.011034,-0.018271,1.000000,0.000051,-0.000011,-0.000037,0.999971,0.000165,-0.006487,0.003962,0.016003,-0.743434,0.453944,0.999884,0.007922,0.012975,-0.007926,0.999969,0.000279,-0.012972,-0.000382,0.999916
30839,2,0,-66.0000,9.623840,-1.067959,-1.813684,0.034313,-0.079661,0.038239,0.006686,-0.001387,-0.010138,-0.063452,-0.537813,-0.909122,0.096238,-0.010684,-0.018137,1.000000,0.000033,-0.000007,-0.000051,0.999971,0.000138,-0.006504,0.004033,0.012822,-0.745381,0.462085,0.999883,0.008064,0.013009,-0.008068,0.999967,0.000224,-0.013007,-0.000329,0.999915
30840,2,0,-66.0000,9.609083,-1.096945,-1.803948,0.023448,-0.049750,0.025451,0.005472,0.000383,-0.005440,-0.063731,-0.532549,-0.914575,0.096090,-0.010972,-0.018040,1.000000,0.000027,0.000002,-0.000027,0.999971,0.000133,-0.006511,0.004039,0.012202,-0.746160,0.462779,0.999883,0.008076,0.013023,-0.008080,0.999967,0.000213,-0.013020,-0.000318,0.999915
30841,2,0,-66.0000,9.623956,-1.067036,-1.813610,0.034658,-0.080018,0.038235,0.001324,0.000057,-0.001742,-0.063102,-0.544887,-0.914723,0.096239,-0.010671,-0.018136,1.000000,0.000007,0.000000,-0.000009,0.999971,0.000135,-0.006508,0.004031,0.012496,-0.745780,0.461797,0.999883,0.008059,0.013016,-0.008063,0.999967,0.000218,-0.013014,-0.000323,0.999915
30842,2,0,-66.0000,9.609154,-1.096505,-1.803835,0.023795,-0.050106,0.025448,-0.001924,0.001148,-0.001405,-0.064582,-0.540626,-0.906598,0.096091,-0.010966,-0.018039,1.000000,-0.000010,0.000006,-0.000007,0.999971,0.000140,-0.006507,0.003996,0.013089,-0.745682,0.457865,0.999883,0.007990,0.013014,-0.007994,0.999968,0.000228,-0.013012,-0.000332,0.999915
30843,2,0,-66.0000,9.620257,-1.086694,-1.757260,0.069614,-0.033109,0.026635,-0.001501,-0.000212,0.000216,-0.059018,-0.540948,-0.910419,0.096203,-0.010867,-0.017572,1.000000,-0.000008,-0.000001,0.000001,0.999971,0.000152,-0.006497,0.003971,0.014449,-0.744599,0.454915,0.999884,0.007939,0.012995,-0.007943,0.999968,0.000252,-0.012993,-0.000355,0.999916
30844,2,0,-66.0000,9.609183,-1.096306,-1.803803,0.024138,-0.050562,0.025445,-0.009674,0.001603,-0.000421,-0.063524,-0.535979,-0.908102,0.096092,-0.010964,-0.018038,1.000000,-0.000048,0.000008,-0.000002,0.999971,0.000153,-0.006496,0.003897,0.014680,-0.744415,0.446520,0.999885,0.007793,0.012992,-0.007796,0.999970,0.000256,-0.012990,-0.000357,0.999916
30845,2,0,-66.0000,9.603637,-1.101262,-1.827031,0.001487,-0.059403,0.024849,-0.005717,0.001133,0.005345,-0.061483,-0.538612,-0.913098,0.096037,-0.011011,-0.018271,1.000000,-0.000029,0.000006,0.000027,0.999972,0.000183,-0.006477,0.003831,0.018087,-0.742247,0.438911,0.999887,0.007660,0.012954,-0.007664,0.999971,0.000316,-0.012951,-0.000415,0.999916
30846,2,0,-67.0000,9.622356,-1.114717,-1.777618,0.039192,-0.021452,0.035676,-0.010507,-0.001487,0.001511,-0.065668,-0.533248,-0.912111,0.096224,-0.011147,-0.017775,1.000000,-0.000053,-0.000007,0.000008,0.999972,0.000183,-0.006457,0.003754,0.018193,-0.739975,0.430057,0.999888,0.007505,0.012915,-0.007510,0.999972,0.000318,-0.012912,-0.000414,0.999917
30847,2,0,-67.0000,9.616814,-1.119655,-1.800833,0.016520,-0.030236,0.035081,-0.009633,0.005102,0.003966,-0.065453,-0.535847,-0.917179,0.096168,-0.011196,-0.018010,1.000000,-0.000048,0.000026,0.000020,0.999972,0.000210,-0.006459,0.003685,0.021339,-0.740281,0.422140,0.999889,0.007367,0.012920,-0.007372,0.999973,0.000372,-0.012917,-0.000468,0.999916
30848,2,0,-67.0000,9.624536,-1.142710,-1.797555,0.008564,-0.009533,0.044722,-0.008241,0.003487,0.000794,-0.064123,-0.533470,-0.909967,0.096245,-0.011427,-0.017977,1.000000,-0.000041,0.000017,0.000004,0.999973,0.000223,-0.006462,0.003616,0.022889,-0.740631,0.414276,0.999890,0.007230,0.012926,-0.007236,0.999974,0.000399,-0.012923,-0.000493,0.999916
30849,2,0,-66.0000,9.616907,-1.119742,-1.800284,0.016854,-0.030570,0.035080,-0.003316,0.002763,0.001767,-0.064863,-0.545866,-0.913555,0.096169,-0.011197,-0.018004,1.000000,-0.000017,0.000014,0.000009,0.999973,0.000241,-0.006462,0.003591,0.024947,-0.740565,0.411369,0.999891,0.007179,0.012925,-0.007185,0.999974,0.000435,-0.012921,-0.000528,0.999916
30850,2,0,-67.0000,9.588907,-1.131339,-1.816501,-0.008691,-0.030172,0.012065,-0.002060,0.004492,0.001457,-0.063932,-0.537591,-0.906751,0.095889,-0.011313,-0.018167,1.000000,-0.000010,0.000022,0.000007,0.999973,0.000266,-0.006467,0.003552,0.027880,-0.741196,0.406807,0.999891,0.007099,0.012936,-0.007106,0.999975,0.000487,-0.012932,-0.000578,0.999916
30851,2,0,-66.0000,9.588993,-1.131502,-1.815943,-0.008544,-0.030415,0.012064,-0.002373,0.007680,0.002793,-0.060946,-0.536144,-0.903944,0.095889,-0.011314,-0.018163,1.000000,-0.000012,0.000038,0.000014,0.999973,0.000308,-0.006484,0.003523,0.032639,-0.743191,0.403485,0.999891,0.007041,0.012971,-0.007049,0.999975,0.000570,-0.012966,-0.000661,0.999916
30852,2,0,-66.0000,9.586938,-1.103840,-1.795122,0.022615,-0.042891,0.003012,-0.000313,0.003188,0.001336,-0.061010,-0.535462,-0.918728,0.095869,-0.011038,-0.017953,1.000000,-0.000002,0.000016,0.000007,0.999973,0.000331,-0.006485,0.003493,0.035339,-0.743230,0.400003,0.999891,0.006981,0.012971,-0.006989,0.999975,0.000617,-0.012967,-0.000707,0.999916
30853,2,0,-66.0000,9.613390,-1.140320,-1.742310,0.052191,0.015981,0.023484,0.001365,0.003555,0.002646,-0.059018,-0.542034,-0.910920,0.096134,-0.011402,-0.017425,1.000000,0.000007,0.000018,0.000013,0.999973,0.000361,-0.006483,0.003464,0.038782,-0.743061,0.396680,0.999892,0.006923,0.012968,-0.006932,0.999976,0.000677,-0.012963,-0.000767,0.999916
30854,2,0,-66.0000,9.624898,-1.143493,-1.795120,0.009607,-0.010668,0.044720,0.000520,0.006278,-0.000595,-0.069298,-0.542919,-0.908998,0.096248,-0.011435,-0.017954,1.000000,0.000003,0.000031,-0.000003,0.999973,0.000385,-0.006502,0.003438,0.041607,-0.745187,0.393657,0.999892,0.006870,0.013006,-0.006880,0.999976,0.000726,-0.013000,-0.000816,0.999915
30855,2,0,-66.0000,9.627125,-1.171216,-1.814994,-0.021215,0.001366,0.053773,-0.000668,0.002878,-0.001715,-0.061867,-0.536909,-0.912506,0.096271,-0.011713,-0.018151,1.000000,-0.000003,0.000014,-0.000009,0.999973,0.000398,-0.006511,0.003423,0.043039,-0.746246,0.391993,0.999892,0.006841,0.013024,-0.006851,0.999976,0.000751,-0.013019,-0.000840,0.999915
30856,2,0,-66.0000,9.589366,-1.131778,-1.813802,-0.007655,-0.031411,0.012062,0.002266,0.004974,-0.000715,-0.061674,-0.536852,-0.914056,0.095893,-0.011318,-0.018141,1.000000,0.000011,0.000025,-0.000004,0.999973,0.000420,-0.006524,0.003406,0.045631,-0.747781,0.390050,0.999892,0.006807,0.013051,-0.006818,0.999976,0.000796,-0.013045,-0.000885,0.999915
30857,2,0,-66.0000,9.597150,-1.154673,-1.810286,-0.015612,-0.010668,0.021708,0.006592,0.005456,-0.002887,-0.065724,-0.533437,-0.909088,0.095971,-0.011548,-0.018106,1.000000,0.000033,0.000027,-0.000014,0.999973,0.000438,-0.006546,0.003412,0.047665,-0.750280,0.390688,0.999891,0.006818,0.013094,-0.006830,0.999976,0.000832,-0.013089,-0.000921,0.999914
30858,2,0,-66.0000,9.584084,-1.136382,-1.835914,-0.030130,-0.040377,0.011470,0.008093,0.005668,-0.003103,-0.057136,-0.539518,-0.916130,0.095840,-0.011365,-0.018362,1.000000,0.000040,0.000028,-0.000016,0.999972,0.000459,-0.006569,0.003425,0.050065,-0.752891,0.392209,0.999890,0.006845,0.013140,-0.006857,0.999976,0.000874,-0.013134,-0.000964,0.999913
30859,2,0,-65.0000,9.567231,-1.138027,-1.805339,-0.010010,-0.022700,-0.010359,0.008339,0.004152,-0.003008,-0.065237,-0.537928,-0.911962,0.095672,-0.011381,-0.018056,1.000000,0.000042,0.000021,-0.000015,0.999972,0.000475,-0.006585,0.003438,0.051861,-0.754776,0.393634,0.999890,0.006870,0.013173,-0.006882,0.999976,0.000905,-0.013166,-0.000996,0.999913
30860,2,0,-65.0000,9.638806,-1.160713,-1.765644,0.025387,0.017685,0.054956,0.010496,0.007299,-0.006680,-0.068263,-0.536323,-0.914008,0.096387,-0.011609,-0.017661,1.000000,0.000052,0.000036,-0.000033,0.999972,0.000489,-0.006624,0.003466,0.053365,-0.759279,0.396774,0.999888,0.006924,0.013252,-0.006937,0.999976,0.000931,-0.013245,-0.001023,0.999912
30861,2,0,-65.0000,9.580764,-1.155502,-1.777727,0.005013,0.006455,-0.000120,0.012665,0.004634,-0.005180,-0.065348,-0.533798,-0.897136,0.095807,-0.011556,-0.017780,1.000000,0.000063,0.000023,-0.000026,0.999972,0.000502,-0.006651,0.003534,0.054844,-0.762378,0.404661,0.999887,0.007062,0.013306,-0.007075,0.999975,0.000957,-0.013299,-0.001051,0.999911
30862,262146,0,-65.0000,9.573243,-1.132317,-1.780018,0.013329,-0.014643,-0.009770,0.014098,0.006518,-0.003965,-0.066572,-0.530277,-0.902617,0.095732,-0.011324,-0.017804,1.000000,0.000070,0.000033,-0.000020,0.999971,0.000529,-0.006680,0.003577,0.057839,-0.765668,0.409565,0.999885,0.007148,0.013363,-0.007162,0.999974,0.001009,-0.013355,-0.001105,0.999910
30863,2,0,-65.0000,9.609130,-1.143294,-1.759836,0.031067,0.005453,0.022888,0.011959,0.004011,-0.011283,-0.058785,-0.537593,-0.916494,0.096090,-0.011437,-0.017601,1.000000,0.000060,0.000020,-0.000056,0.999971,0.000516,-0.006721,0.003644,0.056342,-0.770345,0.417176,0.999883,0.007280,0.013445,-0.007294,0.999973,0.000983,-0.013437,-0.001081,0.999909
30864,2,0,-65.0000,9.586807,-1.149214,-1.752567,0.028357,0.014479,0.000469,0.012312,0.004322,-0.008232,-0.057177,-0.542981,-0.918378,0.095867,-0.011495,-0.017528,1.000000,0.000062,0.000022,-0.000041,0.999970,0.000517,-0.006752,0.003683,0.056442,-0.773892,0.421713,0.999882,0.007360,0.013507,-0.007374,0.999972,0.000985,-0.013499,-0.001084,0.999908
30865,2,0,-65.0000,9.596275,-1.123816,-1.785106,0.016766,-0.024423,0.012647,0.010880,0.002437,-0.009447,-0.062139,-0.536670,-0.905418,0.095962,-0.011242,-0.017853,1.000000,0.000054,0.000012,-0.000047,0.999970,0.000505,-0.006776,0.003689,0.055057,-0.776681,0.422327,0.999881,0.007370,0.013555,-0.007384,0.999972,0.000961,-0.013548,-0.001061,0.999908
30866,2,0,-65.0000,9.604144,-1.145937,-1.781647,0.008830,-0.003717,0.022297,0.014785,0.004280,-0.013240,-0.055176,-0.544215,-0.913331,0.096040,-0.011464,-0.017819,1.000000,0.000074,0.000021,-0.000066,0.999970,0.000489,-0.006820,0.003745,0.053089,-0.781755,0.428798,0.999879,0.007483,0.013644,-0.007497,0.999971,0.000926,-0.013636,-0.001029,0.999906
30867,2,0,-65.0000,9.613659,-1.120246,-1.814116,-0.002779,-0.042673,0.034474,0.010458,0.003797,-0.011069,-0.065214,-0.540420,-0.908707,0.096136,-0.011207,-0.018144,1.000000,0.000052,0.000019,-0.000055,0.999969,0.000476,-0.006855,0.003753,0.051626,-0.785773,0.429740,0.999878,0.007500,0.013714,-0.007513,0.999971,0.000901,-0.013707,-0.001004,0.999906
30868,2,0,-65.0000,9.616028,-1.147158,-1.833920,-0.033554,-0.030566,0.043537,0.010281,0.003641,-0.012594,-0.059543,-0.529770,-0.911800,0.096159,-0.011477,-0.018342,1.000000,0.000051,0.000018,-0.000063,0.999969,0.000456,-0.006895,0.003787,0.049212,-0.790337,0.433674,0.999876,0.007568,0.013794,-0.007581,0.999971,0.000859,-0.013787,-0.000963,0.999904
30869,2,0,-65.0000,9.614097,-1.118344,-1.812970,-0.002415,-0.043027,0.034472,0.014470,0.007468,-0.011907,-0.061452,-0.542847,-0.905831,0.096140,-0.011188,-0.018134,1.000000,0.000072,0.000037,-0.000060,0.999968,0.000451,-0.006950,0.003837,0.048573,-0.796584,0.439349,0.999874,0.007667,0.013903,-0.007680,0.999970,0.000848,-0.013896,-0.000954,0.999903
30870,2,0,-65.0000,9.614337,-1.117475,-1.812234,-0.002229,-0.043223,0.034472,0.014962,0.004435,-0.011715,-0.061187,-0.541154,-0.920191,0.096142,-0.011179,-0.018125,1.000000,0.000075,0.000022,-0.000059,0.999968,0.000441,-0.006991,0.003893,0.047391,-0.801262,0.445740,0.999872,0.007779,0.013984,-0.007791,0.999969,0.000827,-0.013977,-0.000936,0.999902
30871,2,0,-65.0000,9.597590,-1.118292,-1.781502,0.017909,-0.025616,0.012642,0.014293,0.007311,-0.013433,-0.065580,-0.533305,-0.909373,0.095975,-0.011188,-0.017819,1.000000,0.000071,0.000037,-0.000067,0.999967,0.000432,-0.007048,0.003933,0.046307,-0.807823,0.450363,0.999870,0.007859,0.014099,-0.007872,0.999969,0.000808,-0.014092,-0.000919,0.999900
30872,2,0,-65.0000,9.635140,-1.080990,-1.797325,0.032002,-0.065175,0.047818,0.015032,0.002762,-0.013145,-0.059826,-0.539377,-0.910730,0.096350,-0.010815,-0.017975,1.000000,0.000075,0.000014,-0.000066,0.999967,0.000412,-0.007086,0.003991,0.043954,-0.812134,0.457071,0.999868,0.007977,0.014174,-0.007988,0.999968,0.000767,-0.014167,-0.000880,0.999899
30873,2,0,-65.0000,9.618356,-1.081871,-1.766717,0.052128,-0.047529,0.025988,0.010143,0.006985,-0.009737,-0.063243,-0.535247,-0.909924,0.096182,-0.010823,-0.017671,1.000000,0.000051,0.000035,-0.000049,0.999966,0.000410,-0.007132,0.004017,0.043749,-0.817466,0.459968,0.999866,0.008027,0.014267,-0.008039,0.999967,0.000763,-0.014260,-0.000878,0.999898
30874,2,0,-65.0000,9.596068,-1.087701,-1.759325,0.049418,-0.038498,0.003570,0.007211,0.004885,-0.010736,-0.066021,-0.534506,-0.907011,0.095960,-0.010882,-0.017596,1.000000,0.000036,0.000024,-0.000054,0.999966,0.000397,-0.007172,0.004033,0.042204,-0.822055,0.461897,0.999865,0.008061,0.014347,-0.008072,0.999967,0.000737,-0.014341,-0.000852,0.999897
30875,2,0,-65.0000,9.618764,-1.080207,-1.765514,0.052476,-0.047899,0.025984,0.005886,0.004829,-0.008995,-0.069927,-0.534003,-0.917127,0.096187,-0.010806,-0.017658,1.000000,0.000029,0.000024,-0.000045,0.999966,0.000388,-0.007209,0.004049,0.041143,-0.826219,0.463749,0.999863,0.008093,0.014420,-0.008104,0.999967,0.000718,-0.014413,-0.000835,0.999896
30876,2,0,-65.0000,9.618911,-1.079534,-1.765121,0.052662,-0.048098,0.025982,0.006555,0.001954,-0.007276,-0.059871,-0.530239,-0.911973,0.096189,-0.010798,-0.017653,1.000000,0.000033,0.000010,-0.000036,0.999966,0.000381,-0.007227,0.004062,0.040264,-0.828324,0.465138,0.999863,0.008117,0.014456,-0.008128,0.999967,0.000703,-0.014450,-0.000820,0.999895
30877,2,0,-65.0000,9.600963,-1.141565,-1.798343,-0.011976,-0.014340,0.021708,0.004596,0.008276,-0.002870,-0.062044,-0.540075,-0.909454,0.096009,-0.011417,-0.017988,1.000000,0.000023,0.000041,-0.000014,0.999965,0.000401,-0.007261,0.004064,0.042575,-0.832234,0.465397,0.999862,0.008122,0.014525,-0.008133,0.999967,0.000743,-0.014518,-0.000861,0.999894
30878,2,0,-65.0000,9.621398,-1.106706,-1.784275,0.022061,-0.036084,0.035051,0.005230,0.001898,-0.005535,-0.067662,-0.535575,-0.910638,0.096214,-0.011069,-0.017844,1.000000,0.000026,0.000009,-0.000028,0.999965,0.000399,-0.007274,0.004068,0.042337,-0.833775,0.465858,0.999861,0.008130,0.014552,-0.008141,0.999967,0.000739,-0.014545,-0.000857,0.999894
30879,2,0,-65.0000,9.610553,-1.116089,-1.830274,-0.023467,-0.053454,0.033879,0.011996,0.007512,-0.006901,-0.064789,-0.538117,-0.906800,0.096104,-0.011163,-0.018307,1.000000,0.000060,0.000038,-0.000035,0.999965,0.000414,-0.007316,0.004109,0.043958,-0.838581,0.470529,0.999859,0.008211,0.014635,-0.008223,0.999966,0.000767,-0.014629,-0.000887,0.999893
30880,2,0,-65.0000,9.606941,-1.135519,-1.773217,0.011411,-0.006337,0.022293,0.009416,0.005726,-0.004848,-0.058550,-0.530272,-0.914041,0.096069,-0.011357,-0.017735,1.000000,0.000047,0.000029,-0.000024,0.999964,0.000429,-0.007344,0.004130,0.045714,-0.841759,0.472977,0.999858,0.008254,0.014691,-0.008267,0.999966,0.000798,-0.014684,-0.000919,0.999892
30881,2,0,-65.0000,9.609329,-1.163039,-1.792752,-0.019342,0.005833,0.031368,0.013744,0.006209,-0.007020,-0.064750,-0.543127,-0.921859,0.096092,-0.011633,-0.017931,1.000000,0.000069,0.000031,-0.000035,0.999964,0.000440,-0.007379,0.004161,0.046860,-0.845784,0.476502,0.999856,0.008316,0.014761,-0.008329,0.999965,0.000818,-0.014754,-0.000941,0.999891
30882,2,0,-65.0000,9.577123,-1.118340,-1.767941,0.017002,-0.018358,-0.009782,0.013075,0.009083,-0.008740,-0.058385,-0.540398,-0.921354,0.095770,-0.011186,-0.017684,1.000000,0.000065,0.000045,-0.000044,0.999963,0.000452,-0.007431,0.004202,0.048244,-0.851786,0.481181,0.999854,0.008397,0.014866,-0.008411,0.999964,0.000842,-0.014858,-0.000967,0.999889
30883,2,0,-65.0000,9.622374,-1.104464,-1.780396,0.022998,-0.036989,0.035045,0.010248,0.008814,-0.006784,-0.067446,-0.535106,-0.910939,0.096223,-0.011047,-0.017809,1.000000,0.000051,0.000044,-0.000034,0.999963,0.000467,-0.007476,0.004210,0.049912,-0.856938,0.482079,0.999853,0.008413,0.014956,-0.008427,0.999964,0.000871,-0.014948,-0.000997,0.999888
30884,2,0,-66.0000,9.594608,-1.115444,-1.796113,-0.002560,-0.036532,0.012047,0.007142,0.006556,-0.009309,-0.058913,-0.540102,-0.917718,0.095945,-0.011158,-0.017965,1.000000,0.000036,0.000033,-0.000047,0.999963,0.000464,-0.007519,0.004224,0.049534,-0.861893,0.483692,0.999851,0.008441,0.015042,-0.008455,0.999964,0.000864,-0.015034,-0.000991,0.999886
30885,2,0,-65.0000,9.617349,-1.108227,-1.801899,0.000522,-0.045931,0.034460,0.011678,0.010701,-0.005571,-0.060491,-0.542206,-0.910071,0.096172,-0.011084,-0.018025,1.000000,0.000058,0.000054,-0.000028,0.999962,0.000491,-0.007570,0.004247,0.052529,-0.867688,0.486279,0.999849,0.008486,0.015143,-0.008501,0.999963,0.000917,-0.015135,-0.001045,0.999885
30886,2,0,-65.0000,9.595058,-1.114737,-1.794149,-0.002187,-0.036891,0.012046,0.012523,0.007985,-0.002325,-0.068136,-0.540896,-0.906011,0.095950,-0.011147,-0.017946,1.000000,0.000063,0.000040,-0.000012,0.999962,0.000526,-0.007600,0.004280,0.056536,-0.871179,0.490019,0.999848,0.008551,0.015204,-0.008567,0.999963,0.000987,-0.015195,-0.001117,0.999884
30887,2,0,-66.0000,9.617776,-1.107907,-1.799815,0.000882,-0.046368,0.034457,0.013180,0.010914,-0.005787,-0.070160,-0.535376,-0.906788,0.096176,-0.011081,-0.018004,1.000000,0.000066,0.000055,-0.000029,0.999961,0.000558,-0.007653,0.004315,0.060129,-0.877226,0.494000,0.999846,0.008621,0.015310,-0.008638,0.999962,0.001049,-0.015300,-0.001181,0.999882
30888,2,0,-66.0000,9.629001,-1.097773,-1.751994,0.046771,-0.029414,0.035622,0.013108,0.012587,-0.004359,-0.066709,-0.533922,-0.915879,0.096289,-0.010979,-0.017527,1.000000,0.000066,0.000063,-0.000022,0.999961,0.000598,-0.007708,0.004350,0.064637,-0.883567,0.497961,0.999843,0.008690,0.015421,-0.008708,0.999961,0.001128,-0.015410,-0.001262,0.999880
30889,2,0,-66.0000,9.646282,-1.095859,-1.780714,0.026959,-0.047376,0.057451,0.011854,0.010858,-0.004047,-0.066589,-0.534580,-0.910891,0.096462,-0.010959,-0.017813,1.000000,0.000059,0.000054,-0.000020,0.999960,0.000630,-0.007757,0.004401,0.068329,-0.889230,0.503752,0.999841,0.008791,0.015519,-0.008811,0.999960,0.001192,-0.015508,-0.001329,0.999879
30890,2,0,-65.0000,9.629480,-1.097480,-1.749544,0.047102,-0.029762,0.035620,0.012029,0.011016,-0.002521,-0.065399,-0.544015,-0.910670,0.096294,-0.010975,-0.017501,1.000000,0.000060,0.000055,-0.000013,0.999960,0.000672,-0.007801,0.004429,0.073095,-0.894245,0.507021,0.999839,0.008848,0.015607,-0.008869,0.999960,0.001276,-0.015595,-0.001414,0.999877
30891,2,0,-66.0000,9.612676,-1.099080,-1.718362,0.067226,-0.012148,0.013788,0.007104,0.011733,-0.003501,-0.066238,-0.539671,-0.912227,0.096126,-0.010992,-0.017190,1.000000,0.000036,0.000059,-0.000018,0.999959,0.000707,-0.007851,0.004439,0.077008,-0.900021,0.508093,0.999837,0.008867,0.015708,-0.008889,0.999960,0.001344,-0.015695,-0.001483,0.999876
30892,2,0,-65.0000,9.652484,-1.090309,-1.753825,0.050353,-0.039400,0.058028,0.003504,0.012505,-0.006222,-0.061001,-0.533972,-0.903178,0.096523,-0.010906,-0.017544,1.000000,0.000018,0.000063,-0.000031,0.999959,0.000728,-0.007911,0.004429,0.079432,-0.906891,0.506909,0.999836,0.008846,0.015828,-0.008869,0.999960,0.001386,-0.015815,-0.001526,0.999874
30893,2,0,-66.0000,9.624758,-1.101703,-1.769187,0.024792,-0.038922,0.035034,0.004451,0.011622,-0.000020,-0.066862,-0.535591,-0.911077,0.096247,-0.011017,-0.017698,1.000000,0.000022,0.000058,-0.000000,0.999958,0.000773,-0.007950,0.004409,0.084578,-0.911415,0.504570,0.999835,0.008805,0.015907,-0.008830,0.999960,0.001476,-0.015893,-0.001616,0.999872
30894,2,0,-66.0000,9.629533,-1.157441,-1.808256,-0.036900,-0.014439,0.053203,0.006610,0.014764,-0.003698,-0.063829,-0.540544,-0.915806,0.096294,-0.011576,-0.018090,1.000000,0.000033,0.000074,-0.000018,0.999958,0.000814,-0.008013,0.004410,0.089255,-0.918598,0.504676,0.999833,0.008807,0.016032,-0.008833,0.999960,0.001558,-0.016018,-0.001699,0.999870
30895,2,0,-66.0000,9.635316,-1.152326,-1.783346,-0.013867,-0.006034,0.053785,0.011042,0.017078,-0.002914,-0.064748,-0.534819,-0.911325,0.096351,-0.011524,-0.017842,1.000000,0.000055,0.000085,-0.000015,0.999957,0.000868,-0.008083,0.004430,0.095353,-0.926712,0.506860,0.999830,0.008845,0.016173,-0.008873,0.999959,0.001664,-0.016158,-0.001807,0.999868
30896,2,0,-66.0000,9.627939,-1.129212,-1.784663,-0.005594,-0.027141,0.044117,0.010867,0.016919,-0.004440,-0.066760,-0.545084,-0.913108,0.096278,-0.011293,-0.017855,1.000000,0.000054,0.000085,-0.000022,0.999956,0.000916,-0.008157,0.004451,0.100851,-0.935168,0.509267,0.999827,0.008887,0.016321,-0.008917,0.999959,0.001760,-0.016305,-0.001905,0.999865
30897,2,0,-66.0000,9.616664,-1.125817,-1.729694,0.037397,-0.000955,0.022867,0.014292,0.015989,-0.003244,-0.072953,-0.531880,-0.908888,0.096165,-0.011258,-0.017305,1.000000,0.000071,0.000080,-0.000016,0.999956,0.000971,-0.008224,0.004488,0.106998,-0.942874,0.513416,0.999824,0.008959,0.016456,-0.008991,0.999958,0.001867,-0.016438,-0.002015,0.999863
30898,2,0,-66.0000,9.609262,-1.102786,-1.731051,0.045667,-0.022065,0.013197,0.011042,0.017078,-0.002915,-0.051251,-0.537841,-0.910494,0.096091,-0.011028,-0.017319,1.000000,0.000055,0.000085,-0.000015,0.999955,0.001026,-0.008294,0.004509,0.113284,-0.950937,0.515739,0.999822,0.009000,0.016596,-0.009034,0.999957,0.001977,-0.016578,-0.002126,0.999860
30899,2,0,-66.0000,9.604131,-1.107669,-1.752654,0.023019,-0.030782,0.012616,0.009788,0.015348,-0.002602,-0.067767,-0.538026,-0.914125,0.096040,-0.011077,-0.017534,1.000000,0.000049,0.000077,-0.000013,0.999954,0.001074,-0.008355,0.004503,0.118772,-0.957940,0.515086,0.999820,0.008989,0.016718,-0.009024,0.999957,0.002073,-0.016699,-0.002223,0.999858
30900,2,0,-66.0000,9.602144,-1.079445,-1.731026,0.054141,-0.043330,0.003525,0.006510,0.012929,-0.006653,-0.062770,-0.532475,-0.909032,0.096020,-0.010797,-0.017317,1.000000,0.000033,0.000065,-0.000033,0.999954,0.001098,-0.008418,0.004508,0.121489,-0.965150,0.515589,0.999818,0.008997,0.016844,-0.009034,0.999957,0.002120,-0.016824,-0.002272,0.999856
30901,2,0,-66.0000,9.602430,-1.078991,-1.729724,0.054324,-0.043476,0.003523,0.005182,0.012874,-0.004914,-0.070680,-0.534250,-0.914692,0.096023,-0.010792,-0.017304,1.000000,0.000026,0.000064,-0.000025,0.999953,0.001125,-0.008476,0.004500,0.124529,-0.971809,0.514645,0.999816,0.008981,0.016960,-0.009019,0.999957,0.002173,-0.016940,-0.002326,0.999854
30902,2,0,-66.0000,9.591828,-1.088762,-1.774944,0.008796,-0.060793,0.002363,0.000952,0.014226,0.000206,-0.061265,-0.533257,-0.911143,0.095917,-0.010887,-0.017756,1.000000,0.000005,0.000071,0.000001,0.999953,0.001174,-0.008525,0.004471,0.130194,-0.977519,0.511199,0.999815,0.008921,0.017060,-0.008961,0.999957,0.002272,-0.017039,-0.002424,0.999852
30903,2,0,-66.0000,9.607488,-1.134645,-1.767608,-0.007173,-0.019089,0.021705,0.000019,0.009306,-0.000809,-0.062419,-0.536859,-0.903346,0.096074,-0.011347,-0.017681,1.000000,0.000000,0.000047,-0.000004,0.999953,0.001201,-0.008557,0.004439,0.133335,-0.981200,0.507559,0.999814,0.008857,0.017124,-0.008898,0.999958,0.002327,-0.017103,-0.002479,0.999851
30904,2,0,-66.0000,9.594546,-1.116581,-1.792914,-0.021770,-0.048755,0.011454,0.002527,0.012765,-0.001435,-0.065798,-0.539746,-0.911830,0.095944,-0.011166,-0.017935,1.000000,0.000013,0.000064,-0.000007,0.999952,0.001242,-0.008605,0.004420,0.137978,-0.986714,0.505277,0.999813,0.008817,0.017221,-0.008860,0.999958,0.002408,-0.017199,-0.002560,0.999849
30905,2,0,-66.0000,9.602510,-1.139456,-1.788572,-0.029650,-0.028032,0.021126,0.007279,0.011890,-0.001976,-0.067664,-0.542656,-0.903864,0.096024,-0.011395,-0.017892,1.000000,0.000036,0.000059,-0.000010,0.999952,0.001283,-0.008651,0.004412,0.142652,-0.991944,0.504336,0.999811,0.008801,0.017312,-0.008845,0.999958,0.002489,-0.017289,-0.002642,0.999847
30906,2,0,-66.0000,9.591082,-1.136114,-1.734049,0.013363,-0.001874,-0.000126,0.007032,0.013405,-0.002076,-0.063166,-0.544065,-0.912701,0.095910,-0.011362,-0.017347,1.000000,0.000035,0.000067,-0.000010,0.999952,0.001328,-0.008703,0.004414,0.147735,-0.997971,0.504590,0.999810,0.008805,0.017417,-0.008852,0.999958,0.002578,-0.017394,-0.002732,0.999845
30907,2,0,-66.0000,9.621574,-1.152243,-1.736320,0.008373,0.009558,0.031955,0.007106,0.011730,-0.003502,-0.064011,-0.534202,-0.906482,0.096215,-0.011524,-0.017369,1.000000,0.000036,0.000059,-0.000018,0.999951,0.001364,-0.008753,0.004411,0.151854,-1.003655,0.504209,0.999808,0.008799,0.017516,-0.008846,0.999957,0.002650,-0.017492,-0.002804,0.999843
30908,2,0,-66.0000,9.639701,-1.089629,-1.701424,0.073311,-0.024617,0.036170,0.001199,0.012710,0.000303,-0.065062,-0.540025,-0.910749,0.096396,-0.010896,-0.017020,1.000000,0.000006,0.000064,0.000002,0.999951,0.001410,-0.008796,0.004384,0.157140,-1.008602,0.500996,0.999807,0.008743,0.017603,-0.008792,0.999958,0.002742,-0.017578,-0.002896,0.999841
30909,2,0,-66.0000,9.642242,-1.117314,-1.720459,0.042578,-0.012428,0.045265,0.000754,0.010557,-0.005701,-0.071442,-0.538560,-0.912255,0.096421,-0.011176,-0.017210,1.000000,0.000004,0.000053,-0.000029,0.999950,0.001424,-0.008846,0.004350,0.158733,-1.014334,0.497116,0.999806,0.008675,0.017703,-0.008725,0.999958,0.002770,-0.017678,-0.002924,0.999839
30910,2,0,-66.0000,9.639383,-1.149959,-1.762779,-0.011020,-0.008809,0.053786,-0.005055,0.013370,0.001056,-0.064669,-0.539647,-0.915608,0.096393,-0.011500,-0.017634,1.000000,-0.000025,0.000067,0.000005,0.999950,0.001468,-0.008889,0.004291,0.163813,-1.019358,0.490285,0.999805,0.008556,0.017790,-0.008608,0.999959,0.002859,-0.017765,-0.003011,0.999838
30911,2,0,-66.0000,9.656772,-1.147971,-1.791411,-0.030818,-0.026766,0.075617,-0.002990,0.014676,-0.005574,-0.062828,-0.538258,-0.915289,0.096566,-0.011483,-0.017921,1.000000,-0.000015,0.000073,-0.000028,0.999950,0.001488,-0.008957,0.004253,0.166186,-1.027173,0.485865,0.999803,0.008478,0.017927,-0.008532,0.999959,0.002900,-0.017901,-0.003052,0.999835
30912,2,0,-66.0000,9.623809,-1.164026,-1.829757,-0.079247,-0.034803,0.052057,0.005772,0.017473,-0.006951,-0.065285,-0.535847,-0.916466,0.096236,-0.011643,-0.018306,1.000000,0.000029,0.000087,-0.000035,0.999949,0.001522,-0.009040,0.004251,0.170043,-1.036668,0.485655,0.999800,0.008475,0.018092,-0.008530,0.999959,0.002967,-0.018066,-0.003121,0.999832
30913,2,0,-66.0000,9.599367,-1.142225,-1.801137,-0.051014,-0.038046,0.020550,0.010278,0.018114,-0.007590,-0.060115,-0.543062,-0.918437,0.095992,-0.011425,-0.018021,1.000000,0.000051,0.000091,-0.000038,0.999948,0.001557,-0.009126,0.004257,0.173942,-1.046581,0.486292,0.999797,0.008486,0.018265,-0.008543,0.999959,0.003035,-0.018239,-0.003191,0.999829
30914,2,0,-66.0000,9.657946,-1.146224,-1.786189,-0.030236,-0.027289,0.075617,0.014857,0.017080,-0.009654,-0.068591,-0.535352,-0.910168,0.096577,-0.011466,-0.017871,1.000000,0.000074,0.000085,-0.000048,0.999947,0.001589,-0.009215,0.004303,0.177507,-1.056737,0.491474,0.999793,0.008576,0.018442,-0.008635,0.999958,0.003098,-0.018415,-0.003256,0.999825
30915,2,0,-66.0000,9.635216,-1.076558,-1.793606,-0.005864,-0.090192,0.046583,0.015520,0.020005,-0.013120,-0.070954,-0.541068,-0.910865,0.096350,-0.010771,-0.017947,1.000000,0.000078,0.000100,-0.000066,0.999946,0.001612,-0.009324,0.004338,0.180160,-1.069290,0.495426,0.999788,0.008645,0.018662,-0.008705,0.999957,0.003144,-0.018634,-0.003306,0.999821
30916,2,0,-66.0000,9.651777,-1.061127,-1.721796,0.062916,-0.064772,0.048307,0.012716,0.017450,-0.001600,-0.061395,-0.540676,-0.904590,0.096516,-0.010611,-0.017227,1.000000,0.000064,0.000087,-0.000008,0.999945,0.001676,-0.009392,0.004365,0.187376,-1.077131,0.498500,0.999785,0.008699,0.018798,-0.008762,0.999956,0.003270,-0.018769,-0.003434,0.999818
30917,2,0,-66.0000,9.636658,-1.014985,-1.726283,0.079207,-0.106815,0.028946,0.005773,0.017471,-0.006955,-0.065160,-0.548941,-0.905709,0.096365,-0.010153,-0.017272,1.000000,0.000029,0.000087,-0.000035,0.999944,0.001710,-0.009475,0.004356,0.191271,-1.086634,0.497319,0.999783,0.008678,0.018964,-0.008743,0.999956,0.003338,-0.018934,-0.003503,0.999815
30918,2,0,-66.0000,9.629971,-1.067272,-1.711455,0.060394,-0.055929,0.025896,0.005966,0.021140,-0.001052,-0.066357,-0.533420,-0.907935,0.096298,-0.010673,-0.017125,1.000000,0.000030,0.000106,-0.000005,0.999943,0.001778,-0.009557,0.004347,0.199042,-1.096075,0.496299,0.999780,0.008660,0.019129,-0.008728,0.999956,0.003473,-0.019098,-0.003639,0.999811
30919,2,0,-66.0000,9.645768,-1.113243,-1.703246,0.044482,-0.014309,0.045255,0.003630,0.017842,0.001099,-0.058433,-0.539073,-0.912814,0.096456,-0.011132,-0.017041,1.000000,0.000018,0.000089,0.000005,0.999943,0.001844,-0.009620,0.004316,0.206616,-1.103237,0.492631,0.999778,0.008596,0.019254,-0.008667,0.999956,0.003605,-0.019222,-0.003772,0.999808
30920,2,0,-66.0000,9.627622,-1.100546,-1.751029,0.006987,-0.052495,0.034424,0.011063,0.020585,0.001464,-0.065509,-0.536390,-0.917667,0.096275,-0.011004,-0.017521,1.000000,0.000055,0.000103,0.000007,0.999942,0.001927,-0.009693,0.004331,0.216023,-1.111642,0.494215,0.999775,0.008624,0.019401,-0.008699,0.999955,0.003770,-0.019367,-0.003938,0.999805
30921,2,0,-66.0000,9.615550,-1.158523,-1.759179,-0.034642,-0.010066,0.030808,0.013991,0.022688,0.002465,-0.068472,-0.540707,-0.910697,0.096154,-0.011583,-0.017604,1.000000,0.000070,0.000113,0.000012,0.999941,0.002019,-0.009770,0.004328,0.226507,-1.120525,0.493812,0.999772,0.008617,0.019556,-0.008696,0.999954,0.003953,-0.019521,-0.004122,0.999801
30922,2,0,-66.0000,9.621299,-1.153861,-1.733508,-0.011585,-0.001733,0.031381,0.018155,0.023008,-0.001223,-0.073235,-0.536247,-0.902049,0.096211,-0.011538,-0.017347,1.000000,0.000091,0.000115,-0.000006,0.999940,0.002104,-0.009860,0.004379,0.236232,-1.130946,0.499467,0.999767,0.008716,0.019737,-0.008799,0.999953,0.004122,-0.019701,-0.004295,0.999797
30923,2,0,-66.0000,9.568939,-1.144332,-1.721001,-0.009165,-0.004317,-0.023110,0.020816,0.023115,-0.004699,-0.065583,-0.544352,-0.911128,0.095687,-0.011444,-0.017222,1.000000,0.000104,0.000116,-0.000023,0.999938,0.002178,-0.009962,0.004458,0.244571,-1.142688,0.508469,0.999762,0.008873,0.019942,-0.008959,0.999951,0.004268,-0.019903,-0.004445,0.999792
30924,2,0,-66.0000,9.599653,-1.160563,-1.721950,-0.014128,0.007145,0.008977,0.017737,0.024362,-0.002852,-0.080434,-0.543599,-0.910134,0.095994,-0.011605,-0.017232,1.000000,0.000089,0.000122,-0.000014,0.999937,0.002261,-0.010063,0.004507,0.253884,-1.154266,0.513966,0.999757,0.008968,0.020144,-0.009059,0.999949,0.004430,-0.020104,-0.004612,0.999787
30925,2,0,-66.0000,9.597714,-1.132494,-1.699377,0.016932,-0.005449,-0.000133,0.017643,0.022526,-0.005803,-0.063117,-0.540692,-0.915723,0.095975,-0.011326,-0.017006,1.000000,0.000088,0.000113,-0.000029,0.999935,0.002326,-0.010166,0.004576,0.261265,-1.166116,0.521736,0.999751,0.009104,0.020351,-0.009199,0.999947,0.004559,-0.020309,-0.004745,0.999782
30926,2,0,-66.0000,9.577392,-1.091362,-1.726555,0.010336,-0.056012,-0.020075,0.014144,0.025128,-0.005585,-0.067439,-0.539375,-0.911443,0.095771,-0.010915,-0.017278,1.000000,0.000071,0.000126,-0.000028,0.999934,0.002395,-0.010277,0.004609,0.269085,-1.178901,0.525470,0.999746,0.009169,0.020574,-0.009268,0.999946,0.004695,-0.020530,-0.004885,0.999777
30927,2,0,-66.0000,9.583175,-1.085988,-1.700945,0.033413,-0.047640,-0.019504,0.013214,0.020208,-0.006595,-0.069151,-0.534998,-0.909032,0.095830,-0.010862,-0.017020,1.000000,0.000066,0.000101,-0.000033,0.999933,0.002444,-0.010369,0.004622,0.274560,-1.189490,0.526853,0.999742,0.009193,0.020759,-0.009295,0.999945,0.004791,-0.020714,-0.004983,0.999773
30928,2,0,-66.0000,9.591318,-1.108658,-1.695608,0.025562,-0.026920,-0.009820,0.011806,0.021830,-0.003434,-0.073554,-0.531921,-0.905235,0.095911,-0.011087,-0.016967,1.000000,0.000059,0.000109,-0.000017,0.999931,0.002510,-0.010460,0.004644,0.282117,-1.200014,0.529286,0.999738,0.009236,0.020943,-0.009341,0.999944,0.004923,-0.020896,-0.005117,0.999769
30929,2,0,-66.0000,9.636813,-1.095012,-1.706611,0.031511,-0.045573,0.034986,0.008461,0.021081,-0.006065,-0.070745,-0.538691,-0.908405,0.096366,-0.010952,-0.017077,1.000000,0.000042,0.000105,-0.000030,0.999930,0.002557,-0.010557,0.004665,0.287393,-1.211115,0.531581,0.999734,0.009276,0.021136,-0.009384,0.999943,0.005015,-0.021089,-0.005212,0.999764
30930,2,0,-66.0000,9.617093,-1.129380,-1.718056,-0.002100,-0.024114,0.021696,0.009049,0.019888,-0.002911,-0.074717,-0.543338,-0.919258,0.096169,-0.011294,-0.017191,1.000000,0.000045,0.000099,-0.000015,0.999929,0.002617,-0.010639,0.004675,0.294280,-1.220533,0.532559,0.999730,0.009293,0.021301,-0.009404,0.999943,0.005135,-0.021252,-0.005334,0.999760
30931,2,0,-66.0000,9.622830,-1.123988,-1.692575,0.020934,-0.015750,0.022267,0.012552,0.023075,-0.008326,-0.063437,-0.540001,-0.913892,0.096226,-0.011243,-0.016938,1.000000,0.000063,0.000115,-0.000042,0.999928,0.002666,-0.010750,0.004715,0.299744,-1.233329,0.537072,0.999724,0.009371,0.021524,-0.009486,0.999941,0.005230,-0.021474,-0.005433,0.999755
30932,2,0,-66.0000,9.623260,-1.123490,-1.690457,0.021124,-0.015950,0.022266,0.010459,0.018264,-0.006073,-0.071564,-0.546447,-0.904450,0.096231,-0.011237,-0.016914,1.000000,0.000052,0.000091,-0.000030,0.999926,0.002711,-0.010834,0.004735,0.304815,-1.242946,0.539300,0.999720,0.009410,0.021692,-0.009528,0.999940,0.005319,-0.021640,-0.005524,0.999751
30933,2,0,-66.0000,9.646195,-1.116618,-1.694928,0.024216,-0.025412,0.044668,0.014980,0.022418,-0.002330,-0.066056,-0.544220,-0.914026,0.096460,-0.011166,-0.016961,1.000000,0.000075,0.000112,-0.000012,0.999925,0.002787,-0.010924,0.004755,0.313431,-1.253358,0.541494,0.999716,0.009448,0.021873,-0.009570,0.999939,0.005469,-0.021820,-0.005677,0.999746
30934,2,0,-66.0000,9.608591,-1.077403,-1.692482,0.037577,-0.058190,0.002888,0.019565,0.021383,-0.004385,-0.071417,-0.535812,-0.903230,0.096084,-0.010774,-0.016936,1.000000,0.000098,0.000107,-0.000022,0.999924,0.002857,-0.011017,0.004816,0.321327,-1.263986,0.548385,0.999711,0.009569,0.022059,-0.009695,0.999937,0.005607,-0.022004,-0.005819,0.999741
30935,2,0,-66.0000,9.608965,-1.077382,-1.690371,0.037768,-0.058363,0.002886,0.012470,0.018960,-0.001706,-0.064453,-0.540453,-0.913150,0.096088,-0.010774,-0.016913,1.000000,0.000062,0.000095,-0.000009,0.999923,0.002922,-0.011091,0.004832,0.328738,-1.272568,0.550088,0.999707,0.009598,0.022209,-0.009728,0.999936,0.005736,-0.022152,-0.005950,0.999737
30936,2,0,-66.0000,9.634319,-1.098645,-1.715020,0.009944,-0.055422,0.034406,0.009050,0.019885,-0.002916,-0.063623,-0.547396,-0.917610,0.096341,-0.010987,-0.017160,1.000000,0.000045,0.000099,-0.000015,0.999921,0.002982,-0.011173,0.004841,0.335621,-1.281987,0.551060,0.999703,0.009615,0.022373,-0.009749,0.999935,0.005856,-0.022315,-0.006073,0.999733
30937,2,0,-66.0000,9.662522,-1.086912,-1.696142,0.035938,-0.056346,0.057375,0.005888,0.022810,0.000349,-0.071764,-0.544572,-0.910172,0.096623,-0.010868,-0.016973,1.000000,0.000029,0.000114,0.000002,0.999920,0.003059,-0.011256,0.004796,0.344362,-1.291541,0.545691,0.999701,0.009522,0.022540,-0.009659,0.999935,0.006009,-0.022481,-0.006225,0.999728
30938,2,0,-66.0000,9.640334,-1.093809,-1.687386,0.033237,-0.047281,0.034972,0.006304,0.021457,0.001978,-0.069025,-0.542805,-0.912574,0.096402,-0.010937,-0.016885,1.000000,0.000032,0.000107,0.000010,0.999919,0.003140,-0.011331,0.004786,0.353704,-1.300194,0.544480,0.999697,0.009500,0.022691,-0.009643,0.999934,0.006172,-0.022631,-0.006389,0.999723
30939,2,0,-66.0000,9.625203,-1.048316,-1.691722,0.049468,-0.089310,0.015588,0.004971,0.021405,0.003714,-0.070089,-0.540114,-0.905801,0.096250,-0.010481,-0.016928,1.000000,0.000025,0.000107,0.000019,0.999918,0.003227,-0.011402,0.004762,0.363584,-1.308298,0.541574,0.999695,0.009450,0.022832,-0.009597,0.999934,0.006344,-0.022771,-0.006561,0.999719
30940,2,0,-66.0000,9.605442,-1.083427,-1.703130,0.015866,-0.067829,0.002308,0.004971,0.021405,0.003713,-0.065166,-0.542312,-0.907464,0.096053,-0.010832,-0.017042,1.000000,0.000025,0.000107,0.000019,0.999917,0.003314,-0.011472,0.004745,0.373572,-1.316385,0.539431,0.999692,0.009412,0.022973,-0.009564,0.999933,0.006518,-0.022910,-0.006736,0.999715
30941,2,0,-66.0000,9.582523,-1.015137,-1.711028,0.040125,-0.130781,-0.026771,-0.007888,0.016614,0.007329,-0.065951,-0.543044,-0.907780,0.095824,-0.010149,-0.017118,1.000000,-0.000039,0.000083,0.000037,0.999917,0.003388,-0.011511,0.004647,0.382184,-1.320908,0.528158,0.999692,0.009216,0.023052,-0.009372,0.999934,0.006669,-0.022989,-0.006883,0.999712
30942,2,0,-66.0000,9.600006,-1.014378,-1.739351,0.020321,-0.148756,-0.004942,-0.010221,0.016834,0.013852,-0.066048,-0.544170,-0.902490,0.095999,-0.010138,-0.017401,1.000000,-0.000051,0.000084,0.000069,0.999917,0.003488,-0.011535,0.004549,0.393777,-1.323595,0.516775,0.999693,0.009017,0.023099,-0.009178,0.999934,0.006871,-0.023036,-0.007081,0.999710
30943,2,0,-67.0000,9.569824,-0.999395,-1.734775,0.025647,-0.160614,-0.037039,-0.024662,0.013507,0.019097,-0.065231,-0.543094,-0.916228,0.095698,-0.009987,-0.017353,1.000000,-0.000123,0.000068,0.000095,0.999918,0.003585,-0.011528,0.004353,0.405144,-1.322856,0.494169,0.999696,0.008622,0.023086,-0.008788,0.999936,0.007069,-0.023024,-0.007270,0.999708
30944,2,0,-67.0000,9.560252,-1.025341,-1.700781,0.037805,-0.122118,-0.049181,-0.033677,0.012226,0.020348,-0.073162,-0.536264,-0.905578,0.095603,-0.010247,-0.017012,1.000000,-0.000168,0.000061,0.000102,0.999918,0.003674,-0.011514,0.004137,0.415629,-1.321213,0.469339,0.999701,0.008189,0.023057,-0.008358,0.999939,0.007252,-0.022997,-0.007443,0.999708
30945,2,0,-67.0000,9.613073,-1.036587,-1.709689,0.035755,-0.119879,0.005310,-0.041011,0.014832,0.027288,-0.072611,-0.540492,-0.909972,0.096131,-0.010356,-0.017102,1.000000,-0.000205,0.000074,0.000136,0.999919,0.003787,-0.011492,0.003872,0.428967,-1.318623,0.438849,0.999706,0.007657,0.023012,-0.007831,0.999941,0.007485,-0.022954,-0.007663,0.999707
30946,2,0,-67.0000,9.633397,-1.140460,-1.742213,-0.041869,-0.053377,0.042955,-0.039911,0.019909,0.029822,-0.072787,-0.540401,-0.905415,0.096334,-0.011394,-0.017429,1.000000,-0.000200,0.000100,0.000149,0.999920,0.003929,-0.011485,0.003613,0.445507,-1.317713,0.408942,0.999710,0.007135,0.022996,-0.007316,0.999943,0.007773,-0.022940,-0.007939,0.999705
30947,2,0,-67.0000,9.662260,-1.282149,-1.691476,-0.069783,0.089785,0.079296,-0.023046,0.022572,0.030583,-0.071786,-0.538115,-0.904899,0.096623,-0.012809,-0.016924,1.000000,-0.000115,0.000113,0.000153,0.999920,0.004096,-0.011488,0.003446,0.464968,-1.318071,0.389525,0.999712,0.006797,0.023003,-0.006985,0.999943,0.008113,-0.022946,-0.008271,0.999702
30948,2,0,-68.0000,9.741796,-1.344866,-1.566393,0.015667,0.206498,0.143314,0.005750,0.025101,0.026734,-0.069714,-0.543709,-0.905388,0.097418,-0.013435,-0.015677,1.000000,0.000029,0.000126,0.000134,0.999919,0.004289,-0.011512,0.003409,0.487037,-1.320811,0.385033,0.999712,0.006718,0.023050,-0.006916,0.999940,0.008498,-0.022992,-0.008655,0.999698
30949,2,0,-68.0000,9.721598,-1.245602,-1.530007,0.093652,0.139616,0.105661,0.017683,0.024966,0.022121,-0.070884,-0.546514,-0.916901,0.097215,-0.012444,-0.015313,1.000000,0.000088,0.000125,0.000111,0.999917,0.004473,-0.011548,0.003439,0.508115,-1.325068,0.388279,0.999710,0.006775,0.023125,-0.006981,0.999936,0.008866,-0.023063,-0.009025,0.999693
30950,2,0,-68.0000,9.625288,-1.128367,-1.557038,0.113240,0.023910,0.002116,0.009423,0.024937,0.018476,-0.073571,-0.537876,-0.904227,0.096252,-0.011274,-0.015583,1.000000,0.000047,0.000125,0.000092,0.999916,0.004635,-0.011593,0.003428,0.526671,-1.330302,0.386738,0.999708,0.006748,0.023216,-0.006963,0.999934,0.009190,-0.023153,-0.009349,0.999688
30951,2,0,-68.0000,9.627918,-1.158246,-1.574633,0.082521,0.036191,0.011247,0.003167,0.025601,0.019202,-0.074949,-0.539660,-0.899889,0.096278,-0.011573,-0.015759,1.000000,0.000016,0.000128,0.000096,0.999915,0.004792,-0.011640,0.003394,0.544721,-1.335728,0.382635,0.999706,0.006676,0.023311,-0.006900,0.999931,0.009504,-0.023246,-0.009662,0.999683
30952,2,0,-68.0000,9.620098,-1.198000,-1.639061,0.006062,0.031434,0.019249,0.000318,0.021827,0.016769,-0.075326,-0.542556,-0.913345,0.096200,-0.011972,-0.016401,1.000000,0.000002,0.000109,0.000084,0.999914,0.004929,-0.011677,0.003342,0.560453,-1.339941,0.376431,0.999705,0.006568,0.023384,-0.006798,0.999929,0.009779,-0.023318,-0.009935,0.999679
30953,2,0,-68.0000,9.602167,-1.186706,-1.686811,-0.031548,-0.006629,0.008421,0.006575,0.021160,0.016043,-0.074950,-0.543814,-0.905156,0.096021,-0.011859,-0.016879,1.000000,0.000033,0.000106,0.000080,0.999913,0.005066,-0.011715,0.003343,0.576102,-1.344338,0.376373,0.999703,0.006567,0.023461,-0.006804,0.999926,0.010052,-0.023393,-0.010209,0.999674
30954,2,0,-68.0000,9.612099,-1.163645,-1.717587,-0.043345,-0.045521,0.020555,0.012009,0.023201,0.012059,-0.065640,-0.547963,-0.916382,0.096120,-0.011630,-0.017188,1.000000,0.000060,0.000116,0.000060,0.999912,0.005199,-0.011770,0.003351,0.591410,-1.350737,0.377091,0.999700,0.006580,0.023573,-0.006824,0.999923,0.010319,-0.023503,-0.010477,0.999669
30955,2,0,-68.0000,9.607143,-1.170203,-1.738477,-0.066046,-0.054174,0.019991,0.021605,0.023277,0.013973,-0.069852,-0.550116,-0.899837,0.096070,-0.011693,-0.017397,1.000000,0.000108,0.000116,0.000070,0.999910,0.005350,-0.011821,0.003402,0.608573,-1.356677,0.382668,0.999697,0.006677,0.023676,-0.006930,0.999920,0.010618,-0.023603,-0.010779,0.999663
30956,2,0,-68.0000,9.645563,-1.150309,-1.672501,0.005685,-0.038183,0.044080,0.020269,0.023225,0.015705,-0.062071,-0.553540,-0.906688,0.096455,-0.011494,-0.016737,1.000000,0.000101,0.000116,0.000079,0.999908,0.005508,-0.011867,0.003447,0.626586,-1.362007,0.387595,0.999695,0.006763,0.023769,-0.007024,0.999916,0.010933,-0.023693,-0.011096,0.999658
30957,2,0,-68.0000,9.643359,-1.124032,-1.649825,0.036776,-0.050860,0.034942,0.025705,0.025263,0.011722,-0.064182,-0.543266,-0.904686,0.096432,-0.011233,-0.016512,1.000000,0.000129,0.000126,0.000059,0.999907,0.005662,-0.011931,0.003497,0.644182,-1.369490,0.393071,0.999691,0.006858,0.023900,-0.007129,0.999911,0.011240,-0.023821,-0.011407,0.999651
30958,2,0,-68.0000,9.648789,-1.120778,-1.623881,0.059852,-0.042578,0.035503,0.021938,0.023596,0.017023,-0.067386,-0.549738,-0.895903,0.096487,-0.011198,-0.016251,1.000000,0.000110,0.000118,0.000085,0.999905,0.005828,-0.011975,0.003549,0.663127,-1.374605,0.398757,0.999688,0.006958,0.023989,-0.007237,0.999907,0.011570,-0.023906,-0.011740,0.999645
30959,2,0,-68.0000,9.631558,-1.124483,-1.591518,0.080058,-0.025025,0.013668,0.020523,0.025221,0.020176,-0.069050,-0.544491,-0.911063,0.096315,-0.011233,-0.015928,1.000000,0.000103,0.000126,0.000101,0.999903,0.006010,-0.012016,0.003569,0.683901,-1.379410,0.400787,0.999686,0.006993,0.024073,-0.007282,0.999902,0.011933,-0.023987,-0.012104,0.999639
30960,2,0,-68.0000,9.674474,-1.085487,-1.581850,0.116908,-0.056236,0.049318,0.014589,0.022701,0.019578,-0.066874,-0.549616,-0.912329,0.096744,-0.010844,-0.015830,1.000000,0.000073,0.000114,0.000098,0.999902,0.006176,-0.012049,0.003583,0.702913,-1.383254,0.402165,0.999684,0.007017,0.024140,-0.007315,0.999898,0.012264,-0.024051,-0.012437,0.999633
30961,2,0,-68.0000,9.649273,-1.127234,-1.616517,0.060454,-0.043148,0.035497,0.007073,0.021646,0.020607,-0.070852,-0.548224,-0.905119,0.096492,-0.011262,-0.016176,1.000000,0.000035,0.000108,0.000103,0.999901,0.006333,-0.012074,0.003547,0.720920,-1.386151,0.397784,0.999683,0.006941,0.024191,-0.007246,0.999895,0.012578,-0.024101,-0.012750,0.999628
30962,2,0,-68.0000,9.694836,-1.191734,-1.611043,0.039560,0.010152,0.087003,0.012236,0.019409,0.021724,-0.073438,-0.548322,-0.907520,0.096948,-0.011906,-0.016121,1.000000,0.000061,0.000097,0.000109,0.999900,0.006496,-0.012087,0.003550,0.739673,-1.387729,0.397871,0.999683,0.006942,0.024218,-0.007256,0.999890,0.012906,-0.024126,-0.013077,0.999623
30963,2,0,-68.0000,9.644519,-1.212160,-1.619387,0.011073,0.020056,0.041650,0.013331,0.020972,0.019887,-0.067401,-0.543890,-0.906184,0.096445,-0.012111,-0.016205,1.000000,0.000067,0.000105,0.000099,0.999898,0.006657,-0.012113,0.003562,0.758030,-1.390741,0.398961,0.999681,0.006961,0.024271,-0.007284,0.999886,0.013226,-0.024176,-0.013398,0.999618
30964,2,0,-68.0000,9.619106,-1.178141,-1.670434,-0.018529,-0.038958,0.021116,0.007917,0.021211,0.014294,-0.068530,-0.546514,-0.906921,0.096190,-0.011774,-0.016715,1.000000,0.000040,0.000106,0.000071,0.999897,0.006790,-0.012154,0.003549,0.773308,-1.395458,0.397291,0.999679,0.006932,0.024353,-0.007262,0.999883,0.013492,-0.024257,-0.013665,0.999612
30965,2,0,-68.0000,9.624426,-1.174698,-1.645055,0.004560,-0.030633,0.021677,0.013080,0.018973,0.015413,-0.070558,-0.556762,-0.904938,0.096244,-0.011738,-0.016460,1.000000,0.000065,0.000095,0.000077,0.999896,0.006925,-0.012182,0.003551,0.788759,-1.398734,0.397340,0.999678,0.006933,0.024410,-0.007270,0.999879,0.013762,-0.024312,-0.013935,0.999607
30966,2,0,-68.0000,9.589593,-1.179504,-1.583741,0.044756,0.004681,-0.021991,0.005970,0.016569,0.018071,-0.071300,-0.547327,-0.903258,0.095896,-0.011786,-0.015846,1.000000,0.000030,0.000083,0.000090,0.999895,0.007059,-0.012193,0.003528,0.804189,-1.400029,0.394539,0.999678,0.006884,0.024433,-0.007228,0.999875,0.014031,-0.024333,-0.014203,0.999603
30967,2,0,-67.0000,9.627322,-1.144925,-1.598251,0.058700,-0.035024,0.013091,-0.000946,0.016598,0.012682,-0.068564,-0.554246,-0.909672,0.096273,-0.011443,-0.015990,1.000000,-0.000005,0.000083,0.000063,0.999894,0.007164,-0.012219,0.003472,0.816288,-1.403017,0.387904,0.999677,0.006768,0.024485,-0.007118,0.999873,0.014242,-0.024385,-0.014412,0.999599
30968,2,0,-67.0000,9.614842,-1.203826,-1.606951,0.017147,0.007446,0.009549,0.000887,0.017130,0.015528,-0.073605,-0.543790,-0.909487,0.096148,-0.012031,-0.016078,1.000000,0.000004,0.000086,0.000078,0.999893,0.007284,-0.012239,0.003426,0.830088,-1.405329,0.382495,0.999677,0.006674,0.024525,-0.007030,0.999870,0.014483,-0.024425,-0.014651,0.999594
30969,2,0,-67.0000,9.604607,-1.215437,-1.652106,-0.028448,-0.009652,0.008428,-0.000131,0.013891,0.015944,-0.069797,-0.554459,-0.901606,0.096046,-0.012147,-0.016528,1.000000,-0.000001,0.000069,0.000080,0.999892,0.007394,-0.012245,0.003376,0.842728,-1.405990,0.376569,0.999677,0.006570,0.024537,-0.006932,0.999868,0.014703,-0.024437,-0.014869,0.999591
30970,2,0,-66.0000,9.604657,-1.216835,-1.650786,-0.028254,-0.009852,0.008429,0.005798,0.012892,0.012177,-0.073992,-0.552615,-0.900366,0.096046,-0.012162,-0.016514,1.000000,0.000029,0.000064,0.000061,0.999891,0.007494,-0.012256,0.003360,0.854242,-1.407339,0.374584,0.999677,0.006536,0.024560,-0.006903,0.999865,0.014904,-0.024460,-0.015069,0.999587
30971,2,0,-66.0000,9.622618,-1.230965,-1.599363,0.009726,0.027797,0.019257,0.006817,0.016130,0.011761,-0.063287,-0.547420,-0.906151,0.096226,-0.012303,-0.016002,1.000000,0.000034,0.000081,0.000059,0.999890,0.007603,-0.012284,0.003346,0.866765,-1.410493,0.372825,0.999676,0.006505,0.024615,-0.006879,0.999862,0.015123,-0.024513,-0.015287,0.999583
30972,2,0,-66.0000,9.612657,-1.181159,-1.581373,0.048772,-0.005800,0.000398,0.001607,0.009073,0.011476,-0.073503,-0.550025,-0.910013,0.096127,-0.011806,-0.015818,1.000000,0.000008,0.000045,0.000057,0.999890,0.007686,-0.012281,0.003313,0.876299,-1.410185,0.368875,0.999676,0.006436,0.024610,-0.006814,0.999860,0.015289,-0.024508,-0.015452,0.999580
30973,2,0,-66.0000,9.610017,-1.215119,-1.623699,-0.004790,-0.001956,0.008989,0.002133,0.011827,0.006482,-0.071140,-0.546882,-0.893764,0.096100,-0.012148,-0.016243,1.000000,0.000011,0.000059,0.000032,0.999889,0.007754,-0.012303,0.003275,0.884098,-1.412714,0.364381,0.999676,0.006358,0.024654,-0.006739,0.999858,0.015425,-0.024552,-0.015586,0.999577
30974,2,0,-66.0000,9.612803,-1.182788,-1.579266,0.049167,-0.006161,0.000396,0.001036,0.010265,0.008318,-0.067680,-0.541908,-0.903108,0.096128,-0.011824,-0.015798,1.000000,0.000005,0.000051,0.000042,0.999888,0.007826,-0.012314,0.003240,0.892434,-1.413954,0.360354,0.999676,0.006287,0.024676,-0.006673,0.999857,0.015571,-0.024574,-0.015730,0.999574
30975,2,0,-66.0000,9.589977,-1.250945,-1.635464,-0.038160,0.019438,-0.004251,-0.002144,0.006172,0.002834,-0.069779,-0.546710,-0.895088,0.095899,-0.012508,-0.016357,1.000000,-0.000011,0.000031,0.000014,0.999888,0.007860,-0.012323,0.003197,0.896348,-1.414921,0.355320,0.999676,0.006200,0.024693,-0.006587,0.999856,0.015639,-0.024592,-0.015796,0.999573
30976,2,0,-66.0000,9.600322,-1.241019,-1.588211,0.007824,0.036162,-0.003133,0.000700,0.006429,0.000899,-0.069117,-0.555446,-0.907786,0.096003,-0.012410,-0.015885,1.000000,0.000003,0.000032,0.000004,0.999888,0.007891,-0.012337,0.003170,0.899979,-1.416612,0.352193,0.999675,0.006145,0.024722,-0.006534,0.999855,0.015702,-0.024622,-0.015859,0.999571
30977,2,0,-66.0000,9.590168,-1.251143,-1.634194,-0.037772,0.019047,-0.004249,0.005047,0.006895,-0.001240,-0.074918,-0.544768,-0.906418,0.095901,-0.012512,-0.016346,1.000000,0.000025,0.000034,-0.000006,0.999887,0.007919,-0.012360,0.003159,0.903213,-1.419254,0.350892,0.999674,0.006122,0.024768,-0.006514,0.999855,0.015759,-0.024668,-0.015915,0.999569
30978,2,0,-66.0000,9.600577,-1.240865,-1.586790,0.008214,0.035766,-0.003132,0.007727,0.006990,-0.004701,-0.067090,-0.549188,-0.908264,0.096005,-0.012410,-0.015872,1.000000,0.000039,0.000035,-0.000024,0.999887,0.007937,-0.012393,0.003172,0.905195,-1.423015,0.352233,0.999673,0.006146,0.024834,-0.006539,0.999854,0.015793,-0.024733,-0.015950,0.999567
30979,2,0,-66.0000,9.620681,-1.267087,-1.635867,-0.042471,0.030349,0.027859,0.011219,0.004379,-0.004898,-0.073621,-0.545591,-0.903212,0.096206,-0.012672,-0.016361,1.000000,0.000056,0.000022,-0.000024,0.999886,0.007947,-0.012416,0.003205,0.906370,-1.425663,0.355975,0.999671,0.006211,0.024880,-0.006606,0.999853,0.015814,-0.024778,-0.015973,0.999565
30980,2,0,-65.0000,9.628315,-1.214244,-1.648290,-0.023451,-0.021009,0.030823,0.014063,0.004636,-0.006833,-0.067200,-0.543759,-0.906231,0.096282,-0.012145,-0.016486,1.000000,0.000070,0.000023,-0.000034,0.999886,0.007957,-0.012445,0.003251,0.907379,-1.429009,0.361260,0.999669,0.006303,0.024938,-0.006699,0.999852,0.015831,-0.024835,-0.015993,0.999564
30981,2,0,-65.0000,9.613741,-1.257598,-1.558263,0.023719,0.064670,0.007140,0.015403,0.004683,-0.008563,-0.071334,-0.552888,-0.905006,0.096137,-0.012579,-0.015586,1.000000,0.000077,0.000023,-0.000043,0.999885,0.007958,-0.012479,0.003307,0.907385,-1.432959,0.367627,0.999667,0.006414,0.025007,-0.006811,0.999851,0.015831,-0.024902,-0.015996,0.999562
30982,2,0,-66.0000,9.633823,-1.207977,-1.623600,-0.000171,-0.012894,0.031380,0.024099,0.005614,-0.012841,-0.060471,-0.556477,-0.905561,0.096337,-0.012084,-0.016240,1.000000,0.000120,0.000028,-0.000064,0.999884,0.007956,-0.012528,0.003407,0.907029,-1.438729,0.379070,0.999663,0.006614,0.025108,-0.007013,0.999850,0.015825,-0.025000,-0.015996,0.999559
30983,2,0,-66.0000,9.628932,-1.212143,-1.646227,-0.022854,-0.021549,0.030824,0.025924,0.002632,-0.014360,-0.080730,-0.543771,-0.904295,0.096288,-0.012126,-0.016465,1.000000,0.000130,0.000013,-0.000072,0.999883,0.007942,-0.012569,0.003495,0.905276,-1.443434,0.389155,0.999660,0.006790,0.025190,-0.007189,0.999849,0.015794,-0.025079,-0.015970,0.999558
30984,2,0,-66.0000,9.609171,-1.184760,-1.595842,0.028212,-0.016488,-0.000171,0.027513,0.004679,-0.011619,-0.065135,-0.543998,-0.905715,0.096091,-0.011851,-0.015962,1.000000,0.000138,0.000023,-0.000058,0.999882,0.007947,-0.012611,0.003611,0.905614,-1.448405,0.402446,0.999656,0.007022,0.025277,-0.007423,0.999848,0.015800,-0.025162,-0.015982,0.999556
30985,2,0,-66.0000,9.631998,-1.177392,-1.601678,0.031276,-0.025919,0.022218,0.023159,0.000697,-0.013845,-0.073644,-0.540927,-0.905464,0.096319,-0.011779,-0.016018,1.000000,0.000116,0.000003,-0.000069,0.999882,0.007924,-0.012644,0.003720,0.902803,-1.452208,0.414939,0.999653,0.007240,0.025343,-0.007640,0.999847,0.015751,-0.025225,-0.015939,0.999555
30986,2,0,-66.0000,9.612039,-1.211098,-1.614711,-0.002275,-0.004341,0.008989,0.027350,0.004516,-0.013147,-0.065239,-0.543570,-0.901176,0.096119,-0.012115,-0.016151,1.000000,0.000137,0.000023,-0.000066,0.999881,0.007921,-0.012689,0.003837,0.902348,-1.457572,0.428314,0.999649,0.007473,0.025437,-0.007875,0.999845,0.015743,-0.025315,-0.015938,0.999552
30987,2,0,-65.0000,9.627305,-1.180698,-1.623775,0.008769,-0.034706,0.021661,0.027429,0.002838,-0.014567,-0.062646,-0.547009,-0.902289,0.096272,-0.011812,-0.016241,1.000000,0.000137,0.000014,-0.000073,0.999880,0.007905,-0.012732,0.003954,0.900333,-1.462545,0.441658,0.999645,0.007706,0.025523,-0.008108,0.999844,0.015708,-0.025398,-0.015909,0.999551
30988,2,0,-66.0000,9.600071,-1.205680,-1.560407,0.041032,0.021513,-0.012292,0.030844,0.001905,-0.013343,-0.067130,-0.550314,-0.902736,0.096000,-0.012061,-0.015607,1.000000,0.000154,0.000010,-0.000067,0.999879,0.007899,-0.012768,0.004090,0.899403,-1.466744,0.457208,0.999641,0.007977,0.025597,-0.008380,0.999842,0.015692,-0.025467,-0.015901,0.999549
30989,2,0,-66.0000,9.610171,-1.180622,-1.592886,0.029199,-0.017346,-0.000176,0.027921,0.003327,-0.009991,-0.070730,-0.541257,-0.906653,0.096101,-0.011809,-0.015932,1.000000,0.000140,0.000017,-0.000050,0.999878,0.007906,-0.012799,0.004182,0.900015,-1.470389,0.467732,0.999637,0.008161,0.025660,-0.008565,0.999840,0.015702,-0.025528,-0.015916,0.999547
30990,2,0,-66.0000,9.612657,-1.132540,-1.628855,0.025286,-0.077161,0.002219,0.023162,0.000693,-0.013847,-0.070805,-0.551366,-0.911151,0.096126,-0.011330,-0.016290,1.000000,0.000116,0.000003,-0.000069,0.999877,0.007886,-0.012830,0.004282,0.897578,-1.474092,0.479145,0.999634,0.008360,0.025725,-0.008765,0.999839,0.015660,-0.025590,-0.015880,0.999546
30991,2,0,-66.0000,9.617897,-1.126832,-1.605184,0.048380,-0.068862,0.002771,0.022475,0.001302,-0.006014,-0.076217,-0.552113,-0.903352,0.096179,-0.011269,-0.016054,1.000000,0.000112,0.000007,-0.000030,0.999877,0.007896,-0.012843,0.004366,0.898596,-1.475641,0.488841,0.999632,0.008529,0.025752,-0.008935,0.999837,0.015678,-0.025614,-0.015902,0.999545
30992,2,0,-66.0000,9.625613,-1.149404,-1.601406,0.040621,-0.048129,0.012490,0.018898,0.002069,-0.008765,-0.078275,-0.551635,-0.895593,0.096255,-0.011497,-0.016016,1.000000,0.000094,0.000010,-0.000044,0.999876,0.007896,-0.012867,0.004440,0.898477,-1.478392,0.497229,0.999629,0.008675,0.025800,-0.009082,0.999836,0.015676,-0.025660,-0.015904,0.999544
30993,2,0,-66.0000,9.653463,-1.137316,-1.584117,0.066566,-0.049200,0.035429,0.014713,0.001768,-0.005099,-0.070443,-0.544818,-0.898945,0.096534,-0.011374,-0.015843,1.000000,0.000074,0.000009,-0.000025,0.999876,0.007906,-0.012880,0.004502,0.899562,-1.480043,0.504295,0.999628,0.008799,0.025829,-0.009206,0.999834,0.015694,-0.025686,-0.015926,0.999543
30994,2,0,-66.0000,9.633404,-1.171705,-1.597390,0.033022,-0.027607,0.022208,0.013452,0.000044,-0.004786,-0.072422,-0.552048,-0.903495,0.096334,-0.011718,-0.015975,1.000000,0.000067,0.000000,-0.000024,0.999875,0.007911,-0.012884,0.004546,0.900072,-1.480536,0.509383,0.999627,0.008887,0.025837,-0.009295,0.999833,0.015703,-0.025693,-0.015938,0.999543
30995,2,0,-66.0000,9.661197,-1.159825,-1.580277,0.059001,-0.028655,0.045147,0.010364,0.001303,-0.002959,-0.070957,-0.549590,-0.908105,0.096612,-0.011599,-0.015804,1.000000,0.000052,0.000007,-0.000015,0.999875,0.007923,-0.012889,0.004568,0.901357,-1.481066,0.511876,0.999626,0.008931,0.025847,-0.009339,0.999833,0.015726,-0.025702,-0.015961,0.999542
30996,2,0,-66.0000,9.651032,-1.169987,-1.626675,0.013389,-0.045732,0.044041,0.008861,0.001093,-0.002755,-0.070213,-0.552510,-0.906775,0.096510,-0.011700,-0.016268,1.000000,0.000044,0.000005,-0.000014,0.999875,0.007934,-0.012891,0.004588,0.902606,-1.481394,0.514106,0.999626,0.008970,0.025852,-0.009379,0.999832,0.015748,-0.025707,-0.015984,0.999542
30997,2,0,-66.0000,9.651072,-1.169812,-1.626562,0.013585,-0.045909,0.044040,0.013696,-0.001471,-0.004678,-0.074432,-0.553816,-0.898004,0.096511,-0.011699,-0.016266,1.000000,0.000068,-0.000007,-0.000023,0.999875,0.007934,-0.012889,0.004624,0.902588,-1.481108,0.518236,0.999625,0.009042,0.025847,-0.009451,0.999831,0.015747,-0.025701,-0.015986,0.999542
30998,2,0,-66.0000,9.636121,-1.199142,-1.616493,0.002950,-0.015871,0.031375,0.014633,0.003446,-0.003683,-0.069876,-0.550881,-0.904597,0.096361,-0.011992,-0.016167,1.000000,0.000073,0.000017,-0.000018,0.999874,0.007954,-0.012904,0.004671,0.904786,-1.482908,0.523599,0.999623,0.009135,0.025879,-0.009546,0.999830,0.015786,-0.025730,-0.016027,0.999540
30999,2,0,-66.0000,9.651187,-1.169553,-1.626065,0.013965,-0.046317,0.044037,0.017111,-0.002401,-0.003453,-0.074526,-0.545665,-0.908517,0.096512,-0.011696,-0.016260,1.000000,0.000086,-0.000012,-0.000017,0.999874,0.007962,-0.012894,0.004727,0.905634,-1.481891,0.530064,0.999623,0.009248,0.025861,-0.009659,0.999829,0.015800,-0.025710,-0.016044,0.999541
31000,2,0,-66.0000,9.628572,-1.176189,-1.619526,0.011273,-0.037216,0.021649,0.016951,0.000956,-0.000619,-0.076625,-0.552261,-0.908022,0.096286,-0.011761,-0.016197,1.000000,0.000085,0.000005,-0.000003,0.999874,0.007990,-0.012891,0.004785,0.908798,-1.481561,0.536590,0.999622,0.009362,0.025855,-0.009774,0.999827,0.015856,-0.025702,-0.016102,0.999540
31001,2,0,-66.0000,9.628574,-1.176341,-1.619406,0.011446,-0.037376,0.021648,0.015770,-0.002447,-0.001722,-0.068515,-0.550709,-0.905921,0.096286,-0.011763,-0.016194,1.000000,0.000079,-0.000012,-0.000009,0.999873,0.008002,-0.012877,0.004846,0.910033,-1.480049,0.543648,0.999621,0.009485,0.025829,-0.009897,0.999825,0.015877,-0.025674,-0.016127,0.999540
31002,2,0,-66.0000,9.605948,-1.182903,-1.612982,0.008755,-0.028273,-0.000739,0.015364,-0.001098,-0.003357,-0.063921,-0.554461,-0.908259,0.096059,-0.011829,-0.016130,1.000000,0.000077,-0.000005,-0.000017,0.999873,0.008012,-0.012873,0.004899,0.911096,-1.479567,0.549741,0.999621,0.009591,0.025820,-0.010004,0.999824,0.015896,-0.025663,-0.016148,0.999540
31003,2,0,-66.0000,9.623740,-1.256753,-1.625815,-0.037743,0.025933,0.027891,0.020973,0.001089,-0.005813,-0.070773,-0.550692,-0.911660,0.096237,-0.012569,-0.016260,1.000000,0.000105,0.000005,-0.000029,0.999873,0.008023,-0.012883,0.004955,0.912222,-1.480802,0.556109,0.999619,0.009703,0.025842,-0.010116,0.999822,0.015915,-0.025683,-0.016171,0.999539
31004,2,0,-66.0000,9.616505,-1.247581,-1.549238,0.028293,0.060316,0.007156,0.022964,-0.001730,-0.005799,-0.074609,-0.556604,-0.901474,0.096165,-0.012477,-0.015493,1.000000,0.000115,-0.000009,-0.000029,0.999872,0.008029,-0.012882,0.005048,0.912830,-1.480841,0.566749,0.999617,0.009888,0.025843,-0.010302,0.999820,0.015926,-0.025681,-0.016186,0.999539
31005,2,0,-66.0000,9.621469,-1.166674,-1.542389,0.078078,-0.003580,0.000908,0.028411,0.000291,-0.009781,-0.069715,-0.547344,-0.900371,0.096214,-0.011669,-0.015426,1.000000,0.000142,0.000001,-0.000049,0.999871,0.008030,-0.012902,0.005163,0.912754,-1.483182,0.579937,0.999614,0.010118,0.025884,-0.010533,0.999818,0.015925,-0.025718,-0.016191,0.999538
31006,2,0,-66.0000,9.583577,-1.188437,-1.605798,0.006663,-0.019746,-0.023127,0.017193,-0.004083,-0.004869,-0.077927,-0.540844,-0.904454,0.095836,-0.011885,-0.016057,1.000000,0.000086,-0.000020,-0.000024,0.999871,0.008028,-0.012889,0.005229,0.912414,-1.481749,0.587444,0.999613,0.010249,0.025859,-0.010663,0.999816,0.015919,-0.025691,-0.016188,0.999539
31007,262146,0,-66.0000,9.676960,-1.203841,-1.571588,0.045455,0.010902,0.064584,0.020728,-0.000924,-0.010282,-0.071506,-0.538115,-0.903711,0.096769,-0.012042,-0.015717,1.000000,0.000104,-0.000005,-0.000051,0.999870,0.008013,-0.012905,0.005320,0.910608,-1.483623,0.597887,0.999610,0.010431,0.025891,-0.010845,0.999815,0.015887,-0.025721,-0.016162,0.999539
31008,2,0,-65.0000,9.643965,-1.144763,-1.628454,0.023624,-0.068964,0.034297,0.019467,-0.002648,-0.009968,-0.076633,-0.550518,-0.912034,0.096439,-0.011451,-0.016284,1.000000,0.000097,-0.000013,-0.000050,0.999870,0.007996,-0.012912,0.005400,0.908559,-1.484483,0.607091,0.999608,0.010592,0.025906,-0.011005,0.999814,0.015851,-0.025733,-0.016130,0.999539
31009,2,0,-66.0000,9.666902,-1.212993,-1.618170,0.000020,-0.006281,0.063485,0.016623,-0.002901,-0.008031,-0.075959,-0.546364,-0.903915,0.096669,-0.012132,-0.016181,1.000000,0.000083,-0.000015,-0.000040,0.999870,0.007981,-0.012913,0.005469,0.906648,-1.484656,0.615066,0.999607,0.010731,0.025909,-0.011143,0.999813,0.015818,-0.025735,-0.016101,0.999539
31010,2,0,-66.0000,9.623989,-1.178303,-1.641946,-0.009723,-0.047474,0.021092,0.017720,-0.001344,-0.009873,-0.074110,-0.547803,-0.900087,0.096239,-0.011786,-0.016420,1.000000,0.000089,-0.000007,-0.000049,0.999869,0.007966,-0.012925,0.005540,0.904833,-1.486098,0.623183,0.999605,0.010873,0.025934,-0.011285,0.999812,0.015786,-0.025758,-0.016073,0.999539
31011,2,0,-65.0000,9.633959,-1.153438,-1.675038,-0.021645,-0.086316,0.033196,0.017883,-0.001178,-0.008348,-0.070292,-0.550207,-0.907007,0.096339,-0.011537,-0.016751,1.000000,0.000089,-0.000006,-0.000042,0.999869,0.007957,-0.012934,0.005615,0.903653,-1.487251,0.631740,0.999602,0.011022,0.025955,-0.011434,0.999810,0.015766,-0.025776,-0.016056,0.999539
31012,2,0,-65.0000,9.608900,-1.131337,-1.648627,0.006498,-0.089730,0.001627,0.016135,0.000126,-0.008253,-0.078144,-0.542233,-0.897881,0.096089,-0.011316,-0.016487,1.000000,0.000081,0.000001,-0.000041,0.999868,0.007951,-0.012948,0.005675,0.902862,-1.488884,0.638685,0.999600,0.011143,0.025983,-0.011555,0.999809,0.015752,-0.025803,-0.016046,0.999538
31013,2,0,-66.0000,9.631556,-1.124417,-1.655095,0.009562,-0.099210,0.024009,0.014186,-0.004502,-0.004459,-0.077206,-0.538746,-0.901865,0.096316,-0.011245,-0.016550,1.000000,0.000071,-0.000023,-0.000022,0.999868,0.007944,-0.012933,0.005728,0.902049,-1.487165,0.644729,0.999600,0.011249,0.025953,-0.011660,0.999808,0.015738,-0.025771,-0.016034,0.999539
31014,2,0,-65.0000,9.636678,-1.118895,-1.631923,0.032666,-0.090997,0.024554,0.008779,-0.000756,-0.005700,-0.074162,-0.559319,-0.900827,0.096367,-0.011191,-0.016319,1.000000,0.000044,-0.000004,-0.000029,0.999868,0.007938,-0.012936,0.005751,0.901337,-1.487516,0.647370,0.999599,0.011295,0.025959,-0.011705,0.999808,0.015725,-0.025777,-0.016023,0.999539
31015,2,0,-66.0000,9.644347,-1.141645,-1.628385,0.024917,-0.070245,0.034285,0.010773,-0.000045,-0.001329,-0.070260,-0.548989,-0.907266,0.096443,-0.011416,-0.016284,1.000000,0.000054,-0.000000,-0.000007,0.999868,0.007954,-0.012931,0.005783,0.903061,-1.486985,0.651019,0.999599,0.011358,0.025950,-0.011770,0.999807,0.015755,-0.025766,-0.016055,0.999539
31016,2,0,-66.0000,9.651994,-1.164536,-1.624881,0.017189,-0.049505,0.044017,0.004593,-0.001052,-0.002032,-0.079179,-0.550434,-0.903657,0.096520,-0.011646,-0.016249,1.000000,0.000023,-0.000005,-0.000010,0.999868,0.007957,-0.012922,0.005782,0.903503,-1.486018,0.650960,0.999599,0.011357,0.025933,-0.011769,0.999806,0.015763,-0.025749,-0.016062,0.999539
31017,2,0,-65.0000,9.651991,-1.164569,-1.624873,0.017370,-0.049684,0.044015,0.007928,-0.000298,0.000608,-0.077370,-0.550640,-0.896559,0.096520,-0.011645,-0.016249,1.000000,0.000040,-0.000001,0.000003,0.999868,0.007976,-0.012910,0.005795,0.905674,-1.484699,0.652405,0.999599,0.011383,0.025910,-0.011794,0.999806,0.015801,-0.025725,-0.016100,0.999539
31018,2,0,-66.0000,9.674626,-1.158102,-1.631145,0.020450,-0.059199,0.066397,0.004268,0.002143,-0.000728,-0.076546,-0.556028,-0.901770,0.096746,-0.011581,-0.016313,1.000000,0.000021,0.000011,-0.000004,0.999868,0.007994,-0.012912,0.005790,0.907660,-1.484864,0.651776,0.999600,0.011372,0.025913,-0.011784,0.999805,0.015836,-0.025728,-0.016135,0.999539
31019,2,0,-65.0000,9.652017,-1.164895,-1.624482,0.017733,-0.050103,0.044013,0.006506,0.001341,0.003754,-0.079283,-0.551068,-0.909653,0.096520,-0.011647,-0.016246,1.000000,0.000033,0.000007,0.000019,0.999868,0.008030,-0.012899,0.005796,0.911870,-1.483425,0.652436,0.999600,0.011383,0.025888,-0.011797,0.999804,0.015909,-0.025702,-0.016208,0.999538
31020,2,0,-66.0000,9.604250,-1.150241,-1.591512,0.042988,-0.044210,-0.009944,0.007603,0.002897,0.001912,-0.076760,-0.546890,-0.903726,0.096042,-0.011501,-0.015917,1.000000,0.000038,0.000014,0.000010,0.999867,0.008064,-0.012896,0.005804,0.915723,-1.483162,0.653328,0.999600,0.011399,0.025883,-0.011815,0.999803,0.015976,-0.025696,-0.016276,0.999537
31021,2,0,-66.0000,9.664773,-1.183196,-1.597198,0.033095,-0.021124,0.054292,-0.003089,0.001262,0.001826,-0.074246,-0.545311,-0.903817,0.096648,-0.011831,-0.015972,1.000000,-0.000015,0.000006,0.000009,0.999868,0.008080,-0.012888,0.005771,0.917595,-1.482201,0.649514,0.999601,0.011332,0.025866,-0.011749,0.999803,0.016009,-0.025680,-0.016307,0.999537
31022,2,0,-65.0000,9.629392,-1.172268,-1.617494,0.015405,-0.041359,0.021627,-0.001177,0.000125,0.003257,-0.081043,-0.548081,-0.899957,0.096294,-0.011721,-0.016175,1.000000,-0.000006,0.000001,0.000016,0.999868,0.008102,-0.012870,0.005737,0.920216,-1.480108,0.645584,0.999603,0.011264,0.025830,-0.011681,0.999803,0.016055,-0.025644,-0.016350,0.999537
31023,2,0,-66.0000,9.641802,-1.176447,-1.670301,-0.027372,-0.067657,0.042918,-0.001910,0.004667,0.002924,-0.070139,-0.545469,-0.907043,0.096418,-0.011763,-0.016705,1.000000,-0.000010,0.000023,0.000015,0.999868,0.008133,-0.012873,0.005707,0.923793,-1.480456,0.642100,0.999603,0.011203,0.025836,-0.011622,0.999803,0.016117,-0.025650,-0.016411,0.999536
31024,2,0,-66.0000,9.637020,-1.195751,-1.613646,0.007856,-0.020789,0.031363,0.000571,-0.001179,0.003162,-0.068067,-0.549812,-0.900258,0.096370,-0.011956,-0.016136,1.000000,0.000003,-0.000006,0.000016,0.999868,0.008153,-0.012850,0.005682,0.926180,-1.477779,0.639258,0.999605,0.011153,0.025789,-0.011572,0.999802,0.016159,-0.025604,-0.016451,0.999537
31025,2,0,-65.0000,9.614386,-1.202603,-1.607070,0.005178,-0.011642,0.008982,0.002847,0.003782,0.002418,-0.075353,-0.553660,-0.912837,0.096144,-0.012025,-0.016073,1.000000,0.000014,0.000019,0.000012,0.999868,0.008185,-0.012849,0.005652,0.929802,-1.477673,0.635708,0.999606,0.011091,0.025787,-0.011512,0.999802,0.016222,-0.025602,-0.016512,0.999536
31026,2,0,-65.0000,9.654610,-1.133373,-1.579944,0.072794,-0.055566,0.035351,-0.000325,0.003195,0.001303,-0.073318,-0.548437,-0.902280,0.096546,-0.011333,-0.015801,1.000000,-0.000002,0.000016,0.000007,0.999868,0.008208,-0.012849,0.005621,0.932528,-1.477671,0.632219,0.999607,0.011030,0.025787,-0.011452,0.999802,0.016270,-0.025603,-0.016558,0.999535
31027,2,0,-65.0000,9.604319,-1.151673,-1.590059,0.044289,-0.045506,-0.009955,-0.003904,0.003955,-0.001448,-0.069340,-0.550018,-0.906229,0.096043,-0.011518,-0.015902,1.000000,-0.000020,0.000020,-0.000007,0.999868,0.008217,-0.012860,0.005574,0.933613,-1.478922,0.626805,0.999607,0.010936,0.025809,-0.011359,0.999803,0.016288,-0.025626,-0.016575,0.999534
31028,2,0,-65.0000,9.654691,-1.133365,-1.579457,0.073170,-0.055949,0.035346,-0.007438,0.000800,0.003968,-0.075369,-0.553125,-0.898787,0.096547,-0.011332,-0.015795,1.000000,-0.000037,0.000004,0.000020,0.999868,0.008237,-0.012843,0.005509,0.936040,-1.476875,0.619256,0.999609,0.010804,0.025773,-0.011227,0.999804,0.016331,-0.025592,-0.016614,0.999534
31029,2,0,-66.0000,9.647278,-1.186047,-1.566199,0.054665,-0.004937,0.032446,-0.010202,-0.001133,0.004490,-0.070918,-0.552830,-0.905606,0.096473,-0.011859,-0.015661,1.000000,-0.000051,-0.000006,0.000022,0.999869,0.008251,-0.012816,0.005423,0.937756,-1.473741,0.609494,0.999613,0.010634,0.025719,-0.011057,0.999805,0.016361,-0.025540,-0.016639,0.999535
31030,2,0,-65.0000,9.629397,-1.173890,-1.616288,0.016927,-0.042877,0.021618,-0.012275,0.003366,0.005888,-0.070828,-0.546019,-0.896346,0.096294,-0.011737,-0.016164,1.000000,-0.000061,0.000017,0.000029,0.999870,0.008281,-0.012804,0.005331,0.941300,-1.472288,0.598841,0.999615,0.010448,0.025693,-0.010872,0.999806,0.016423,-0.025517,-0.016696,0.999535
31031,2,0,-65.0000,9.606748,-1.180678,-1.609843,0.014236,-0.033742,-0.000762,-0.012114,0.000004,0.003058,-0.076873,-0.550147,-0.905706,0.096068,-0.011806,-0.016098,1.000000,-0.000061,0.000000,0.000015,0.999870,0.008289,-0.012786,0.005235,0.942419,-1.470100,0.587875,0.999618,0.010257,0.025655,-0.010681,0.999808,0.016442,-0.025482,-0.016710,0.999536
31032,2,0,-65.0000,9.609251,-1.208922,-1.629727,-0.016390,-0.021390,0.008437,-0.010853,0.001728,0.002742,-0.069398,-0.558374,-0.896934,0.096093,-0.012089,-0.016297,1.000000,-0.000054,0.000009,0.000014,0.999871,0.008303,-0.012776,0.005153,0.944147,-1.468847,0.578477,0.999620,0.010093,0.025633,-0.010517,0.999809,0.016472,-0.025462,-0.016736,0.999536
31033,2,0,-65.0000,9.644596,-1.220248,-1.609326,0.001698,-0.001582,0.041101,-0.009186,0.002104,0.004062,-0.071892,-0.545287,-0.903871,0.096446,-0.012201,-0.016094,1.000000,-0.000046,0.000011,0.000020,0.999871,0.008326,-0.012764,0.005073,0.946846,-1.467453,0.569324,0.999623,0.009933,0.025609,-0.010358,0.999810,0.016519,-0.025440,-0.016778,0.999536
31034,2,0,-65.0000,9.637214,-1.272852,-1.595892,-0.016784,0.049432,0.038211,-0.003089,0.001262,0.001826,-0.075240,-0.550616,-0.897563,0.096372,-0.012728,-0.015959,1.000000,-0.000015,0.000006,0.000009,0.999871,0.008343,-0.012754,0.005031,0.948910,-1.466332,0.564390,0.999624,0.009847,0.025590,-0.010273,0.999810,0.016555,-0.025422,-0.016812,0.999535
31035,2,0,-65.0000,9.606961,-1.256599,-1.592849,-0.011587,0.037632,0.006089,-0.003089,0.001262,0.001826,-0.074287,-0.550592,-0.903557,0.096070,-0.012565,-0.015929,1.000000,-0.000015,0.000006,0.000009,0.999871,0.008359,-0.012746,0.004989,0.950837,-1.465294,0.559632,0.999625,0.009764,0.025571,-0.010190,0.999810,0.016589,-0.025405,-0.016843,0.999535
31036,2,0,-65.0000,9.649722,-1.215193,-1.585764,0.025196,0.006226,0.041642,0.005527,0.000338,-0.005398,-0.076986,-0.554703,-0.894893,0.096497,-0.012154,-0.015858,1.000000,0.000028,0.000002,-0.000027,0.999871,0.008354,-0.012752,0.004995,0.950218,-1.466051,0.560341,0.999625,0.009776,0.025585,-0.010203,0.999811,0.016578,-0.025418,-0.016833,0.999535
31037,2,0,-65.0000,9.604298,-1.152571,-1.589536,0.046166,-0.047495,-0.009973,0.000690,0.002904,-0.003478,-0.066234,-0.553029,-0.900188,0.096043,-0.011527,-0.015897,1.000000,0.000003,0.000015,-0.000017,0.999871,0.008358,-0.012765,0.004979,0.950737,-1.467547,0.558437,0.999625,0.009743,0.025611,-0.010170,0.999811,0.016587,-0.025444,-0.016842,0.999534
31038,2,0,-65.0000,9.634613,-1.168705,-1.592289,0.041351,-0.036076,0.022149,-0.000407,0.001347,-0.001636,-0.073086,-0.549071,-0.906850,0.096346,-0.011688,-0.015924,1.000000,-0.000002,0.000007,-0.000008,0.999871,0.008365,-0.012766,0.004952,0.951505,-1.467566,0.555359,0.999625,0.009690,0.025611,-0.010117,0.999811,0.016601,-0.025445,-0.016854,0.999534
31039,2,0,-65.0000,9.632059,-1.202050,-1.635299,-0.012189,-0.032084,0.030814,-0.001585,0.001471,0.001620,-0.069229,-0.555446,-0.908261,0.096321,-0.012020,-0.016354,1.000000,-0.000008,0.000007,0.000008,0.999871,0.008382,-0.012758,0.004906,0.953609,-1.466605,0.550012,0.999626,0.009596,0.025594,-0.010024,0.999811,0.016637,-0.025430,-0.016888,0.999534
31040,2,0,-65.0000,9.632078,-1.202110,-1.635148,-0.011994,-0.032285,0.030813,0.001260,0.001724,-0.000316,-0.068348,-0.552715,-0.899439,0.096321,-0.012021,-0.016352,1.000000,0.000006,0.000009,-0.000002,0.999871,0.008397,-0.012756,0.004886,0.955310,-1.466411,0.547694,0.999627,0.009556,0.025591,-0.009984,0.999811,0.016667,-0.025427,-0.016916,0.999534
31041,2,0,-66.0000,9.664927,-1.185190,-1.594780,0.036938,-0.025045,0.054269,0.001423,0.001890,0.001210,-0.080844,-0.549578,-0.900756,0.096649,-0.011851,-0.015949,1.000000,0.000007,0.000009,0.000006,0.999872,0.008418,-0.012751,0.004850,0.957777,-1.465790,0.543603,0.999628,0.009484,0.025580,-0.009914,0.999811,0.016710,-0.025417,-0.016957,0.999533
31042,2,0,-65.0000,9.621976,-1.151163,-1.618377,0.027099,-0.066196,0.011855,0.002764,0.001933,-0.000521,-0.077016,-0.546856,-0.897144,0.096220,-0.011512,-0.016185,1.000000,0.000014,0.000010,-0.000003,0.999871,0.008434,-0.012751,0.004838,0.959620,-1.465774,0.542130,0.999628,0.009459,0.025580,-0.009889,0.999811,0.016742,-0.025417,-0.016989,0.999533
31043,2,0,-66.0000,9.634688,-1.169029,-1.591596,0.042293,-0.037051,0.022141,-0.002438,-0.001600,0.003573,-0.074582,-0.545689,-0.898721,0.096347,-0.011689,-0.015915,1.000000,-0.000012,-0.000008,0.000018,0.999872,0.008451,-0.012726,0.004815,0.961609,-1.462968,0.539523,0.999630,0.009413,0.025531,-0.009843,0.999811,0.016777,-0.025368,-0.017022,0.999533
31044,2,0,-66.0000,9.619669,-1.198597,-1.581775,0.031719,-0.006977,0.009513,0.002845,0.000252,-0.001936,-0.060253,-0.547676,-0.905361,0.096197,-0.011987,-0.015818,1.000000,0.000014,0.000001,-0.000010,0.999872,0.008457,-0.012723,0.004805,0.962286,-1.462584,0.538376,0.999630,0.009393,0.025524,-0.009824,0.999811,0.016789,-0.025362,-0.017033,0.999533
31045,2,0,-65.0000,9.629916,-1.188086,-1.534949,0.077777,0.009609,0.010589,0.004025,0.003657,-0.000837,-0.071269,-0.550099,-0.902011,0.096299,-0.011881,-0.015351,1.000000,0.000020,0.000018,-0.000004,0.999872,0.008475,-0.012731,0.004784,0.964442,-1.463443,0.535990,0.999630,0.009352,0.025539,-0.009783,0.999811,0.016826,-0.025377,-0.017070,0.999532
31046,2,0,-66.0000,9.642339,-1.192188,-1.587810,0.035005,-0.016677,0.031887,0.000733,-0.001014,0.004688,-0.072150,-0.552122,-0.903810,0.096424,-0.011920,-0.015878,1.000000,0.000004,-0.000005,0.000023,0.999872,0.008502,-0.012704,0.004759,0.967617,-1.460372,0.533066,0.999632,0.009301,0.025486,-0.009733,0.999810,0.016882,-0.025324,-0.017124,0.999533
31047,2,0,-65.0000,9.629570,-1.174779,-1.614609,0.020146,-0.046186,0.021597,0.000163,0.000167,0.001526,-0.075255,-0.545524,-0.894800,0.096296,-0.011747,-0.016146,1.000000,0.000001,0.000001,0.000008,0.999872,0.008518,-0.012691,0.004729,0.969489,-1.458893,0.529591,0.999633,0.009240,0.025460,-0.009672,0.999810,0.016914,-0.025299,-0.017155,0.999533
31048,2,0,-66.0000,9.617095,-1.232557,-1.624448,-0.021228,-0.003532,0.018187,0.001423,0.001890,0.001210,-0.080979,-0.546732,-0.900975,0.096171,-0.012325,-0.016245,1.000000,0.000007,0.000009,0.000006,0.999872,0.008540,-0.012686,0.004708,0.971980,-1.458306,0.527190,0.999634,0.009198,0.025449,-0.009631,0.999810,0.016958,-0.025289,-0.017197,0.999532
31049,2,0,-66.0000,9.606956,-1.181547,-1.607963,0.017615,-0.037231,-0.000781,0.001504,0.000210,-0.000205,-0.075921,-0.553593,-0.899910,0.096070,-0.011815,-0.016080,1.000000,0.000008,0.000001,-0.000001,0.999872,0.008550,-0.012680,0.004706,0.973148,-1.457567,0.527010,0.999634,0.009195,0.025437,-0.009629,0.999809,0.016978,-0.025276,-0.017217,0.999532
31050,2,0,-65.0000,9.662368,-1.219535,-1.637091,-0.015106,-0.022570,0.062937,0.004512,0.000629,-0.000616,-0.065944,-0.545519,-0.900758,0.096624,-0.012195,-0.016371,1.000000,0.000023,0.000003,-0.000003,0.999872,0.008564,-0.012674,0.004703,0.974757,-1.456969,0.526625,0.999634,0.009188,0.025426,-0.009622,0.999809,0.017006,-0.025265,-0.017245,0.999532
31051,2,0,-66.0000,9.614621,-1.204285,-1.604404,0.010121,-0.016666,0.008971,0.004267,-0.001386,-0.005082,-0.065510,-0.541300,-0.909891,0.096146,-0.012045,-0.016044,1.000000,0.000021,-0.000007,-0.000025,0.999872,0.008553,-0.012673,0.004699,0.973515,-1.456820,0.526160,0.999635,0.009180,0.025424,-0.009614,0.999810,0.016985,-0.025263,-0.017223,0.999532
31052,2,0,-65.0000,9.634712,-1.169464,-1.591132,0.044004,-0.038782,0.022127,0.003659,-0.002442,0.001337,-0.076401,-0.551577,-0.890015,0.096347,-0.011694,-0.015910,1.000000,0.000018,-0.000012,0.000007,0.999872,0.008566,-0.012650,0.004692,0.975018,-1.454129,0.525336,0.999636,0.009166,0.025377,-0.009599,0.999809,0.017011,-0.025216,-0.017248,0.999533
31053,2,0,-65.0000,9.632096,-1.202793,-1.634535,-0.009540,-0.034739,0.030808,-0.001343,-0.003571,-0.002624,-0.072382,-0.550403,-0.898738,0.096321,-0.012029,-0.016344,1.000000,-0.000007,-0.000018,-0.000013,0.999873,0.008553,-0.012632,0.004662,0.973538,-1.452114,0.521897,0.999637,0.009106,0.025341,-0.009538,0.999810,0.016985,-0.025182,-0.017221,0.999535
31054,2,0,-65.0000,9.621914,-1.151370,-1.618595,0.029329,-0.068474,0.011833,0.000242,-0.005043,-0.004244,-0.068195,-0.549063,-0.899977,0.096219,-0.011516,-0.016184,1.000000,0.000001,-0.000025,-0.000021,0.999873,0.008532,-0.012613,0.004644,0.971217,-1.449872,0.519961,0.999639,0.009072,0.025302,-0.009502,0.999811,0.016945,-0.025144,-0.017179,0.999536
31055,2,0,-66.0000,9.644768,-1.219969,-1.608503,0.005904,-0.005811,0.041098,0.000244,-0.001514,0.000111,-0.066618,-0.550051,-0.902355,0.096448,-0.012200,-0.016084,1.000000,0.000001,-0.000008,0.000001,0.999874,0.008538,-0.012597,0.004615,0.971940,-1.448004,0.516582,0.999640,0.009013,0.025270,-0.009443,0.999812,0.016957,-0.025112,-0.017190,0.999537
31056,2,0,-66.0000,9.599234,-1.157823,-1.612581,0.026826,-0.059528,-0.010545,0.003415,-0.000928,0.001226,-0.067347,-0.551137,-0.905946,0.095992,-0.011577,-0.016126,1.000000,0.000017,-0.000005,0.000006,0.999874,0.008554,-0.012580,0.004605,0.973819,-1.446074,0.515513,0.999641,0.008994,0.025236,-0.009425,0.999811,0.016990,-0.025078,-0.017222,0.999537
31057,2,0,-65.0000,9.604263,-1.214309,-1.652228,-0.034570,-0.034529,0.007898,0.007928,-0.000299,0.000610,-0.072407,-0.552608,-0.907512,0.096043,-0.012142,-0.016523,1.000000,0.000040,-0.000001,0.000003,0.999874,0.008573,-0.012568,0.004604,0.975990,-1.444624,0.515281,0.999642,0.008990,0.025211,-0.009421,0.999811,0.017028,-0.025053,-0.017259,0.999537
31058,2,0,-65.0000,9.637064,-1.197503,-1.612083,0.014370,-0.027343,0.031340,0.006668,-0.002023,0.000926,-0.075438,-0.543666,-0.904289,0.096371,-0.011974,-0.016120,1.000000,0.000033,-0.000010,0.000005,0.999874,0.008589,-0.012547,0.004611,0.977779,-1.442291,0.516144,0.999643,0.009005,0.025170,-0.009436,0.999810,0.017059,-0.025012,-0.017291,0.999538
31059,2,0,-66.0000,9.637028,-1.197769,-1.612099,0.014547,-0.027504,0.031339,0.008091,-0.000132,0.002135,-0.069146,-0.544531,-0.905271,0.096370,-0.011976,-0.016121,1.000000,0.000040,-0.000001,0.000011,0.999874,0.008614,-0.012532,0.004628,0.980644,-1.440612,0.518104,0.999643,0.009040,0.025141,-0.009471,0.999809,0.017109,-0.024981,-0.017341,0.999538
31060,2,0,-65.0000,9.614390,-1.204442,-1.605668,0.011860,-0.018368,0.008966,0.009349,-0.001938,-0.002536,-0.076266,-0.553856,-0.899578,0.096144,-0.012045,-0.016056,1.000000,0.000047,-0.000010,-0.000013,0.999874,0.008618,-0.012521,0.004652,0.981137,-1.439421,0.520822,0.999643,0.009087,0.025120,-0.009519,0.999808,0.017118,-0.024960,-0.017351,0.999538
31061,2,0,-66.0000,9.636999,-1.197930,-1.612155,0.014923,-0.027882,0.031338,0.003415,-0.000928,0.001226,-0.071069,-0.549967,-0.902058,0.096370,-0.011978,-0.016121,1.000000,0.000017,-0.000005,0.000006,0.999874,0.008633,-0.012505,0.004644,0.982869,-1.437577,0.519897,0.999644,0.009071,0.025088,-0.009503,0.999808,0.017148,-0.024927,-0.017380,0.999538
31062,2,0,-66.0000,9.639582,-1.164480,-1.569066,0.068847,-0.032323,0.022644,0.001178,-0.000125,-0.003257,-0.068524,-0.552247,-0.901404,0.096396,-0.011646,-0.015691,1.000000,0.000006,-0.000001,-0.000016,0.999874,0.008631,-0.012504,0.004627,0.982611,-1.437405,0.517989,0.999644,0.009038,0.025085,-0.009469,0.999808,0.017144,-0.024925,-0.017375,0.999538
31063,2,0,-65.0000,9.636979,-1.197597,-1.612520,0.015310,-0.028271,0.031336,-0.002359,-0.006809,-0.002195,-0.075776,-0.548387,-0.901199,0.096370,-0.011977,-0.016122,1.000000,-0.000012,-0.000034,-0.000011,0.999875,0.008610,-0.012472,0.004589,0.980331,-1.433673,0.513706,0.999647,0.008963,0.025020,-0.009392,0.999810,0.017104,-0.024862,-0.017333,0.999541
31064,2,0,-65.0000,9.629246,-1.174708,-1.616591,0.023364,-0.049425,0.021574,-0.003454,-0.004836,0.004001,-0.075363,-0.559919,-0.903805,0.096293,-0.011745,-0.016163,1.000000,-0.000017,-0.000024,0.000020,0.999875,0.008620,-0.012431,0.004547,0.981531,-1.428934,0.508822,0.999650,0.008878,0.024937,-0.009306,0.999810,0.017125,-0.024780,-0.017351,0.999542
31065,2,0,-65.0000,9.654280,-1.196494,-1.643366,-0.004379,-0.046365,0.053173,-0.003781,-0.005170,0.000950,-0.075592,-0.550410,-0.898483,0.096543,-0.011965,-0.016431,1.000000,-0.000019,-0.000026,0.000005,0.999876,0.008616,-0.012398,0.004511,0.981132,-1.425141,0.504794,0.999652,0.008807,0.024871,-0.009235,0.999811,0.017118,-0.024715,-0.017342,0.999544
31066,2,0,-65.0000,9.614066,-1.204397,-1.607644,0.012986,-0.019531,0.008962,-0.001016,-0.003237,0.000428,-0.068480,-0.540805,-0.902167,0.096141,-0.012044,-0.016075,1.000000,-0.000005,-0.000016,0.000002,0.999876,0.008618,-0.012374,0.004482,0.981414,-1.422305,0.501521,0.999654,0.008750,0.024821,-0.009177,0.999811,0.017123,-0.024667,-0.017345,0.999545
31067,2,0,-66.0000,9.639103,-1.226207,-1.634359,-0.014742,-0.016436,0.040563,0.004555,-0.006817,0.003195,-0.068036,-0.552773,-0.895750,0.096392,-0.012260,-0.016341,1.000000,0.000023,-0.000034,0.000016,0.999877,0.008626,-0.012327,0.004483,0.982367,-1.417022,0.501634,0.999656,0.008752,0.024729,-0.009178,0.999811,0.017139,-0.024574,-0.017361,0.999547
31068,2,0,-65.0000,9.616366,-1.233131,-1.628326,-0.017428,-0.007293,0.018192,0.008579,-0.003160,0.002356,-0.067241,-0.544507,-0.907225,0.096164,-0.012329,-0.016282,1.000000,0.000043,-0.000016,0.000012,0.999877,0.008647,-0.012298,0.004499,0.984712,-1.413715,0.503503,0.999657,0.008785,0.024671,-0.009210,0.999810,0.017180,-0.024516,-0.017402,0.999548
31069,2,0,-65.0000,9.641506,-1.193414,-1.591939,0.039379,-0.021068,0.031862,0.008496,-0.005009,-0.000584,-0.067779,-0.551342,-0.908352,0.096415,-0.011934,-0.015917,1.000000,0.000042,-0.000025,-0.000003,0.999877,0.008649,-0.012269,0.004509,0.984952,-1.410414,0.504647,0.999658,0.008805,0.024614,-0.009229,0.999810,0.017185,-0.024458,-0.017406,0.999549
31070,2,0,-65.0000,9.636325,-1.198665,-1.615636,0.016638,-0.029618,0.031330,0.013089,-0.006062,-0.002616,-0.071990,-0.550946,-0.897326,0.096364,-0.011987,-0.016154,1.000000,0.000065,-0.000030,-0.000013,0.999877,0.008646,-0.012242,0.004554,0.984603,-1.407299,0.509786,0.999659,0.008895,0.024560,-0.009318,0.999809,0.017179,-0.024402,-0.017402,0.999551
31071,2,0,-65.0000,9.618753,-1.200002,-1.586271,0.036881,-0.012111,0.009490,0.011505,-0.004590,-0.000996,-0.072838,-0.548116,-0.904400,0.096188,-0.012000,-0.015861,1.000000,0.000058,-0.000023,-0.000005,0.999877,0.008651,-0.012216,0.004583,0.985174,-1.404410,0.513141,0.999660,0.008953,0.024509,-0.009376,0.999808,0.017189,-0.024351,-0.017412,0.999552
31072,2,0,-65.0000,9.593527,-1.178542,-1.560464,0.064981,-0.015578,-0.022115,0.005896,-0.006774,0.001464,-0.072790,-0.550740,-0.900147,0.095936,-0.011784,-0.015602,1.000000,0.000029,-0.000034,0.000007,0.999878,0.008656,-0.012174,0.004589,0.985689,-1.399615,0.513894,0.999661,0.008966,0.024425,-0.009388,0.999808,0.017198,-0.024267,-0.017421,0.999554
31073,2,0,-65.0000,9.605800,-1.182554,-1.614123,0.022164,-0.041789,-0.000808,0.002560,-0.007528,-0.001175,-0.074951,-0.547425,-0.910173,0.096059,-0.011826,-0.016138,1.000000,0.000013,-0.000038,-0.000006,0.999878,0.008642,-0.012137,0.004585,0.984197,-1.395352,0.513481,0.999663,0.008959,0.024351,-0.009379,0.999809,0.017172,-0.024193,-0.017394,0.999556
31074,2,0,-65.0000,9.613331,-1.205402,-1.611281,0.014512,-0.021035,0.008957,0.000812,-0.006224,-0.001080,-0.068723,-0.549664,-0.900103,0.096134,-0.012054,-0.016110,1.000000,0.000004,-0.000031,-0.000005,0.999879,0.008632,-0.012105,0.004568,0.983078,-1.391564,0.511623,0.999665,0.008927,0.024285,-0.009345,0.999809,0.017152,-0.024127,-0.017373,0.999558
31075,2,0,-65.0000,9.630718,-1.204100,-1.641681,-0.005364,-0.038888,0.030795,0.005976,-0.008456,0.000050,-0.070187,-0.544663,-0.908788,0.096308,-0.012040,-0.016413,1.000000,0.000030,-0.000042,0.000000,0.999880,0.008625,-0.012060,0.004579,0.982221,-1.386480,0.512860,0.999667,0.008948,0.024196,-0.009364,0.999809,0.017137,-0.024038,-0.017358,0.999560
31076,2,0,-65.0000,9.623253,-1.256389,-1.628977,-0.023739,0.012169,0.027961,0.009997,-0.008331,-0.005146,-0.072087,-0.556580,-0.900815,0.096233,-0.012566,-0.016286,1.000000,0.000050,-0.000042,-0.000026,0.999880,0.008602,-0.012030,0.004612,0.979628,-1.383028,0.516721,0.999668,0.009016,0.024136,-0.009430,0.999809,0.017092,-0.023977,-0.017314,0.999563
31077,2,0,-65.0000,9.625782,-1.222773,-1.586552,0.030169,0.007716,0.019252,0.004065,-0.007319,-0.001381,-0.077585,-0.549480,-0.895505,0.096258,-0.012228,-0.015862,1.000000,0.000020,-0.000037,-0.000007,0.999881,0.008591,-0.011994,0.004611,0.978276,-1.378906,0.516648,0.999670,0.009014,0.024064,-0.009427,0.999810,0.017068,-0.023906,-0.017290,0.999565
31078,2,0,-65.0000,9.653463,-1.210615,-1.570371,0.056188,0.006503,0.042149,0.006417,-0.007571,-0.007896,-0.066907,-0.554114,-0.903541,0.096535,-0.012109,-0.015700,1.000000,0.000032,-0.000038,-0.000039,0.999881,0.008555,-0.011974,0.004629,0.974191,-1.376639,0.518742,0.999670,0.009051,0.024025,-0.009461,0.999811,0.016997,-0.023866,-0.017219,0.999567
31079,2,0,-65.0000,9.618035,-1.198967,-1.591399,0.038384,-0.013638,0.009482,0.000729,-0.008073,-0.004019,-0.069453,-0.554361,-0.908710,0.096181,-0.011992,-0.015910,1.000000,0.000004,-0.000040,-0.000020,0.999882,0.008528,-0.011942,0.004616,0.971088,-1.372982,0.517415,0.999672,0.009028,0.023961,-0.009435,0.999812,0.016943,-0.023803,-0.017164,0.999569
31080,2,0,-65.0000,9.635434,-1.197156,-1.622052,0.018521,-0.031525,0.031321,0.002393,-0.011228,-0.007054,-0.066802,-0.551474,-0.903315,0.096355,-0.011975,-0.016215,1.000000,0.000012,-0.000056,-0.000035,0.999883,0.008482,-0.011905,0.004616,0.965820,-1.368656,0.517464,0.999674,0.009029,0.023885,-0.009433,0.999814,0.016851,-0.023729,-0.017071,0.999573
31081,2,0,-65.0000,9.615240,-1.231232,-1.636392,-0.014946,-0.009736,0.018194,0.000645,-0.009923,-0.006959,-0.071742,-0.551431,-0.898889,0.096153,-0.012316,-0.016359,1.000000,0.000003,-0.000050,-0.000035,0.999883,0.008436,-0.011873,0.004597,0.960688,-1.364916,0.515336,0.999676,0.008992,0.023820,-0.009392,0.999815,0.016762,-0.023665,-0.016980,0.999576
31082,2,0,-65.0000,9.637774,-1.224099,-1.643753,-0.011869,-0.019287,0.040561,0.003817,-0.009336,-0.005847,-0.066051,-0.554863,-0.900733,0.096378,-0.012243,-0.016433,1.000000,0.000019,-0.000047,-0.000029,0.999884,0.008402,-0.011840,0.004601,0.956730,-1.361138,0.515902,0.999677,0.009002,0.023754,-0.009399,0.999816,0.016693,-0.023599,-0.016910,0.999578
31083,2,0,-65.0000,9.622436,-1.177673,-1.651475,0.003989,-0.061402,0.021018,0.006417,-0.007571,-0.007897,-0.068593,-0.543544,-0.893863,0.096225,-0.011780,-0.016511,1.000000,0.000032,-0.000038,-0.000039,0.999885,0.008366,-0.011820,0.004611,0.952656,-1.358912,0.517160,0.999678,0.009023,0.023715,-0.009419,0.999817,0.016622,-0.023561,-0.016840,0.999581
31084,2,0,-65.0000,9.622387,-1.177311,-1.652020,0.004182,-0.061602,0.021017,0.006830,-0.005385,-0.001907,-0.068403,-0.549458,-0.898172,0.096224,-0.011773,-0.016518,1.000000,0.000034,-0.000027,-0.000010,0.999885,0.008362,-0.011794,0.004624,0.952111,-1.355841,0.518677,0.999679,0.009050,0.023662,-0.009444,0.999817,0.016612,-0.023507,-0.016830,0.999582
31085,2,0,-65.0000,9.635102,-1.194477,-1.625996,0.019480,-0.032499,0.031315,0.003569,-0.011355,-0.010312,-0.073119,-0.551398,-0.897060,0.096351,-0.011949,-0.016255,1.000000,0.000018,-0.000057,-0.000052,0.999886,0.008302,-0.011765,0.004628,0.945306,-1.352513,0.519253,0.999680,0.009060,0.023604,-0.009451,0.999819,0.016493,-0.023450,-0.016711,0.999585
31086,2,0,-65.0000,9.592441,-1.173440,-1.570950,0.067631,-0.018297,-0.022138,0.002314,-0.009547,-0.005640,-0.071148,-0.547121,-0.902040,0.095925,-0.011737,-0.015705,1.000000,0.000012,-0.000048,-0.000028,0.999886,0.008266,-0.011730,0.004625,0.941205,-1.348556,0.518974,0.999682,0.009055,0.023535,-0.009443,0.999821,0.016422,-0.023382,-0.016639,0.999588
31087,2,0,-65.0000,9.655393,-1.233688,-1.597626,0.027135,0.017353,0.051387,0.001985,-0.009883,-0.008691,-0.066832,-0.543816,-0.902305,0.096554,-0.012341,-0.015972,1.000000,0.000010,-0.000049,-0.000043,0.999887,0.008216,-0.011704,0.004626,0.935443,-1.345500,0.519228,0.999683,0.009060,0.023481,-0.009444,0.999822,0.016321,-0.023329,-0.016538,0.999591
31088,2,0,-65.0000,9.630237,-1.211255,-1.572233,0.055225,0.013873,0.019773,0.000237,-0.008579,-0.008595,-0.064024,-0.550965,-0.898954,0.096303,-0.012117,-0.015718,1.000000,0.000001,-0.000043,-0.000043,0.999888,0.008168,-0.011682,0.004615,0.929993,-1.342907,0.518026,0.999684,0.009039,0.023436,-0.009420,0.999824,0.016226,-0.023285,-0.016442,0.999594
31089,2,0,-65.0000,9.594795,-1.199119,-1.593551,0.037428,-0.006233,-0.012894,-0.002775,-0.012531,-0.012535,-0.072220,-0.542877,-0.896018,0.095948,-0.011997,-0.015929,1.000000,-0.000014,-0.000063,-0.000063,0.999889,0.008089,-0.011653,0.004583,0.920992,-1.339574,0.514500,0.999686,0.008977,0.023378,-0.009354,0.999827,0.016069,-0.023230,-0.016283,0.999598
31090,2,0,-65.0000,9.614721,-1.224808,-1.644243,-0.013213,-0.011475,0.018195,-0.001351,-0.010639,-0.011328,-0.074944,-0.550444,-0.903402,0.096147,-0.012254,-0.016437,1.000000,-0.000007,-0.000053,-0.000057,0.999890,0.008023,-0.011630,0.004568,0.913440,-1.336824,0.512863,0.999688,0.008949,0.023330,-0.009322,0.999830,0.015938,-0.023183,-0.016150,0.999601
31091,262146,0,-65.0000,9.609539,-1.228957,-1.668542,-0.035991,-0.019973,0.017669,0.000153,-0.010429,-0.011536,-0.078040,-0.544290,-0.903173,0.096096,-0.012295,-0.016680,1.000000,0.000001,-0.000052,-0.000058,0.999891,0.007957,-0.011609,0.004569,0.905899,-1.334410,0.513074,0.999689,0.008952,0.023288,-0.009322,0.999832,0.015806,-0.023142,-0.016018,0.999604
31092,2,0,-65.0000,9.614679,-1.222592,-1.646135,-0.012849,-0.011851,0.018195,0.004419,-0.008285,-0.012269,-0.065441,-0.549484,-0.907148,0.096147,-0.012231,-0.016458,1.000000,0.000022,-0.000041,-0.000061,0.999891,0.007899,-0.011598,0.004581,0.899298,-1.333137,0.514569,0.999689,0.008978,0.023266,-0.009345,0.999833,0.015691,-0.023121,-0.015903,0.999606
31093,2,0,-65.0000,9.652199,-1.185228,-1.663629,0.000912,-0.051689,0.053147,0.006410,-0.014636,-0.016608,-0.068764,-0.551498,-0.901598,0.096522,-0.011860,-0.016630,1.000000,0.000032,-0.000073,-0.000083,0.999892,0.007808,-0.011573,0.004615,0.888761,-1.330273,0.518573,0.999690,0.009048,0.023216,-0.009410,0.999835,0.015507,-0.023071,-0.015721,0.999610
31094,2,0,-65.0000,9.614647,-1.220006,-1.648239,-0.012477,-0.012214,0.018195,0.007672,-0.009379,-0.012574,-0.071790,-0.553316,-0.911922,0.096146,-0.012205,-0.016478,1.000000,0.000038,-0.000047,-0.000063,0.999892,0.007750,-0.011558,0.004644,0.882071,-1.328596,0.522000,0.999690,0.009108,0.023186,-0.009466,0.999837,0.015390,-0.023042,-0.015605,0.999613
31095,2,0,-65.0000,9.639898,-1.178751,-1.612474,0.044302,-0.026085,0.031829,0.008846,-0.009505,-0.015833,-0.070061,-0.551053,-0.898283,0.096399,-0.011794,-0.016121,1.000000,0.000044,-0.000048,-0.000079,0.999893,0.007678,-0.011553,0.004679,0.873867,-1.327949,0.526109,0.999689,0.009180,0.023175,-0.009535,0.999838,0.015247,-0.023031,-0.015463,0.999615
31096,2,0,-65.0000,9.604489,-1.166316,-1.633620,0.026486,-0.046203,-0.000839,0.009092,-0.011019,-0.015722,-0.069395,-0.548767,-0.899192,0.096045,-0.011670,-0.016331,1.000000,0.000045,-0.000055,-0.000079,0.999893,0.007605,-0.011540,0.004719,0.865363,-1.326470,0.530791,0.999689,0.009261,0.023149,-0.009612,0.999840,0.015099,-0.023006,-0.015317,0.999618
31097,2,0,-65.0000,9.612176,-1.187929,-1.631025,0.018849,-0.025442,0.008939,0.007508,-0.009548,-0.014100,-0.062086,-0.547174,-0.906685,0.096122,-0.011885,-0.016306,1.000000,0.000038,-0.000048,-0.000071,0.999894,0.007540,-0.011529,0.004746,0.857874,-1.325256,0.533955,0.999689,0.009317,0.023128,-0.009664,0.999841,0.014968,-0.022985,-0.015187,0.999620
31098,2,0,-65.0000,9.614797,-1.153317,-1.588896,0.072757,-0.029977,0.000205,0.004911,-0.011315,-0.012047,-0.070883,-0.542549,-0.908373,0.096148,-0.011539,-0.015884,1.000000,0.000025,-0.000057,-0.000060,0.999895,0.007476,-0.011505,0.004762,0.850521,-1.322458,0.535937,0.999690,0.009351,0.023079,-0.009695,0.999843,0.014840,-0.022937,-0.015059,0.999623
31099,2,0,-65.0000,9.612127,-1.185621,-1.632992,0.019240,-0.025798,0.008937,0.004746,-0.011484,-0.013573,-0.074855,-0.548329,-0.899660,0.096121,-0.011862,-0.016325,1.000000,0.000024,-0.000057,-0.000068,0.999895,0.007402,-0.011484,0.004771,0.842111,-1.320030,0.537034,0.999691,0.009370,0.023037,-0.009710,0.999845,0.014693,-0.022896,-0.014912,0.999627
31100,2,0,-65.0000,9.606931,-1.189811,-1.657240,-0.003517,-0.034308,0.008414,0.003327,-0.009843,-0.010426,-0.072886,-0.550946,-0.901128,0.096070,-0.011903,-0.016568,1.000000,0.000017,-0.000049,-0.000052,0.999896,0.007347,-0.011462,0.004777,0.835780,-1.317424,0.537845,0.999692,0.009385,0.022991,-0.009721,0.999846,0.014583,-0.022851,-0.014802,0.999629
31101,2,0,-65.0000,9.614568,-1.211648,-1.654852,-0.011163,-0.013543,0.018195,0.006743,-0.014301,-0.013559,-0.071506,-0.539932,-0.901203,0.096146,-0.012122,-0.016542,1.000000,0.000034,-0.000072,-0.000068,0.999897,0.007271,-0.011431,0.004813,0.827005,-1.313839,0.542061,0.999692,0.009458,0.022929,-0.009791,0.999848,0.014430,-0.022789,-0.014650,0.999633
31102,2,0,-65.0000,9.619715,-1.205080,-1.632652,0.011983,-0.005433,0.018717,0.007342,-0.009717,-0.015628,-0.064912,-0.549805,-0.900751,0.096197,-0.012058,-0.016322,1.000000,0.000037,-0.000049,-0.000078,0.999897,0.007199,-0.011423,0.004843,0.818733,-1.312940,0.545654,0.999692,0.009521,0.022913,-0.009850,0.999849,0.014285,-0.022774,-0.014507,0.999635
31103,2,0,-65.0000,9.619711,-1.203868,-1.633565,0.012171,-0.005609,0.018716,0.012677,-0.011774,-0.012979,-0.070076,-0.550305,-0.897526,0.096197,-0.012044,-0.016331,1.000000,0.000063,-0.000059,-0.000065,0.999898,0.007137,-0.011400,0.004894,0.811578,-1.310305,0.551605,0.999692,0.009625,0.022867,-0.009950,0.999850,0.014161,-0.022727,-0.014384,0.999638
31104,2,0,-65.0000,9.624853,-1.197254,-1.611458,0.035318,0.002497,0.019238,0.012508,-0.015478,-0.018858,-0.074032,-0.553742,-0.894838,0.096249,-0.011981,-0.016108,1.000000,0.000063,-0.000077,-0.000094,0.999898,0.007042,-0.011377,0.004956,0.800653,-1.307673,0.558871,0.999692,0.009751,0.022821,-0.010072,0.999852,0.013970,-0.022682,-0.014195,0.999642
31105,2,0,-64.0000,9.581656,-1.161790,-1.636468,0.025271,-0.038587,-0.023214,0.004663,-0.013339,-0.016513,-0.072438,-0.550733,-0.912521,0.095817,-0.011625,-0.016359,1.000000,0.000023,-0.000067,-0.000083,0.999899,0.006955,-0.011357,0.004978,0.790670,-1.305419,0.561481,0.999692,0.009797,0.022782,-0.010113,0.999854,0.013796,-0.022643,-0.014022,0.999645
31106,2,0,-65.0000,9.631963,-1.141690,-1.627531,0.054176,-0.049214,0.022030,0.001491,-0.013931,-0.017621,-0.064927,-0.543627,-0.897487,0.096320,-0.011425,-0.016269,1.000000,0.000007,-0.000070,-0.000088,0.999900,0.006858,-0.011337,0.004984,0.779488,-1.303062,0.562348,0.999693,0.009812,0.022741,-0.010123,0.999856,0.013601,-0.022604,-0.013827,0.999649
31107,2,0,-65.0000,9.581599,-1.158534,-1.639113,0.025648,-0.038964,-0.023216,-0.003020,-0.014566,-0.016995,-0.063648,-0.552552,-0.904310,0.095816,-0.011594,-0.016384,1.000000,-0.000015,-0.000073,-0.000085,0.999901,0.006755,-0.011313,0.004964,0.767741,-1.300209,0.560139,0.999695,0.009774,0.022691,-0.010079,0.999859,0.013396,-0.022557,-0.013620,0.999653
31108,2,0,-65.0000,9.631854,-1.138479,-1.630421,0.054554,-0.049596,0.022026,-0.003944,-0.015953,-0.013624,-0.062902,-0.545701,-0.898466,0.096319,-0.011392,-0.016296,1.000000,-0.000020,-0.000080,-0.000068,0.999902,0.006662,-0.011273,0.004941,0.757190,-1.295597,0.557704,0.999697,0.009731,0.022611,-0.010032,0.999862,0.013212,-0.022479,-0.013435,0.999657
31109,2,0,-65.0000,9.611733,-1.171682,-1.645325,0.021121,-0.027767,0.008928,-0.008952,-0.017097,-0.017573,-0.068594,-0.545856,-0.911672,0.096118,-0.011726,-0.016445,1.000000,-0.000045,-0.000085,-0.000088,0.999904,0.006545,-0.011239,0.004880,0.743817,-1.291555,0.550849,0.999700,0.009612,0.022540,-0.009906,0.999867,0.012978,-0.022412,-0.013198,0.999662
31110,2,0,-65.0000,9.619380,-1.193019,-1.643449,0.013515,-0.007004,0.018714,-0.011789,-0.013817,-0.011276,-0.062701,-0.543020,-0.904032,0.096194,-0.011937,-0.016427,1.000000,-0.000059,-0.000069,-0.000056,0.999905,0.006459,-0.011202,0.004816,0.734087,-1.287188,0.543620,0.999703,0.009485,0.022464,-0.009775,0.999870,0.012809,-0.022339,-0.013024,0.999666
31111,2,0,-65.0000,9.604469,-1.220987,-1.635018,0.003035,0.023166,0.006140,-0.007448,-0.016885,-0.017784,-0.073527,-0.552254,-0.908753,0.096045,-0.012219,-0.016342,1.000000,-0.000037,-0.000084,-0.000089,0.999906,0.006341,-0.011169,0.004771,0.720649,-1.283371,0.538652,0.999705,0.009399,0.022397,-0.009682,0.999874,0.012574,-0.022276,-0.012787,0.999670
31112,2,0,-65.0000,9.626965,-1.212613,-1.643262,0.006110,0.013598,0.028501,-0.001021,-0.017381,-0.016985,-0.075574,-0.541906,-0.905009,0.096270,-0.012134,-0.016424,1.000000,-0.000005,-0.000087,-0.000085,0.999907,0.006234,-0.011133,0.004766,0.708426,-1.279136,0.538313,0.999707,0.009393,0.022323,-0.009670,0.999877,0.012361,-0.022204,-0.012573,0.999674
31113,2,0,-65.0000,9.568823,-1.206578,-1.658604,-0.014647,0.002901,-0.026527,0.003571,-0.018428,-0.019029,-0.069821,-0.553241,-0.902102,0.095689,-0.012075,-0.016577,1.000000,0.000018,-0.000092,-0.000095,0.999908,0.006120,-0.011099,0.004798,0.695344,-1.275250,0.542071,0.999708,0.009458,0.022255,-0.009730,0.999879,0.012133,-0.022138,-0.012346,0.999679
31114,2,0,-65.0000,9.619082,-1.186089,-1.650195,0.014262,-0.007744,0.018712,0.003238,-0.018767,-0.022081,-0.062670,-0.546499,-0.909808,0.096191,-0.011871,-0.016493,1.000000,0.000016,-0.000094,-0.000110,0.999909,0.005993,-0.011071,0.004819,0.680804,-1.271955,0.544758,0.999708,0.009505,0.022198,-0.009771,0.999882,0.011879,-0.022082,-0.012092,0.999683
31115,2,0,-65.0000,9.588722,-1.167700,-1.648923,0.019368,-0.019533,-0.013437,0.000066,-0.019362,-0.023187,-0.064368,-0.550118,-0.908153,0.095887,-0.011688,-0.016480,1.000000,0.000000,-0.000097,-0.000116,0.999910,0.005857,-0.011043,0.004816,0.665159,-1.268702,0.544578,0.999710,0.009502,0.022141,-0.009761,0.999885,0.011606,-0.022028,-0.011819,0.999687
31116,2,0,-65.0000,9.608603,-1.130820,-1.637845,0.053188,-0.041778,-0.000350,-0.000110,-0.025292,-0.019482,-0.080376,-0.537438,-0.910399,0.096087,-0.011318,-0.016366,1.000000,-0.000001,-0.000126,-0.000097,0.999912,0.005720,-0.010981,0.004823,0.649476,-1.261435,0.545614,0.999712,0.009520,0.022014,-0.009772,0.999888,0.011333,-0.021904,-0.011544,0.999693
31117,2,0,-64.0000,9.638777,-1.145159,-1.643086,0.048445,-0.030349,0.031798,0.005157,-0.019899,-0.020657,-0.071740,-0.544350,-0.905663,0.096388,-0.011461,-0.016422,1.000000,0.000026,-0.000099,-0.000103,0.999913,0.005596,-0.010945,0.004861,0.635281,-1.257301,0.550150,0.999713,0.009599,0.021942,-0.009844,0.999890,0.011085,-0.021833,-0.011298,0.999698
31118,2,0,-65.0000,9.620460,-1.131173,-1.694920,0.010510,-0.068092,0.020970,-0.002106,-0.018943,-0.015140,-0.069627,-0.545230,-0.896629,0.096205,-0.011319,-0.016940,1.000000,-0.000011,-0.000095,-0.000076,0.999914,0.005491,-0.010897,0.004851,0.623328,-1.251735,0.549119,0.999715,0.009582,0.021845,-0.009821,0.999893,0.010876,-0.021739,-0.011088,0.999702
31119,2,0,-64.0000,9.701836,-1.140779,-1.610045,0.092697,-0.011951,0.087338,-0.000688,-0.020583,-0.018291,-0.065973,-0.535312,-0.905267,0.097019,-0.011417,-0.016090,1.000000,-0.000003,-0.000103,-0.000091,0.999915,0.005371,-0.010852,0.004854,0.609514,-1.246484,0.549646,0.999717,0.009591,0.021754,-0.009824,0.999895,0.010635,-0.021649,-0.010846,0.999707
31120,2,0,-65.0000,9.615869,-1.146697,-1.642202,0.046122,-0.021572,0.009435,-0.007198,-0.018410,-0.017671,-0.073157,-0.546340,-0.902067,0.096159,-0.011476,-0.016413,1.000000,-0.000036,-0.000092,-0.000088,0.999916,0.005252,-0.010813,0.004821,0.595919,-1.241931,0.546005,0.999720,0.009527,0.021674,-0.009754,0.999898,0.010398,-0.021573,-0.010607,0.999711
31121,2,0,-65.0000,9.651299,-1.155866,-1.624009,0.064351,-0.001868,0.042101,-0.008284,-0.019968,-0.015824,-0.073822,-0.548956,-0.914703,0.096514,-0.011567,-0.016230,1.000000,-0.000041,-0.000100,-0.000079,0.999917,0.005133,-0.010763,0.004784,0.582423,-1.236141,0.541922,0.999723,0.009456,0.021573,-0.009677,0.999902,0.010163,-0.021475,-0.010369,0.999716
31122,2,0,-65.0000,9.623424,-1.166155,-1.642497,0.038706,-0.000979,0.019225,-0.010534,-0.015641,-0.015946,-0.069298,-0.545115,-0.899967,0.096235,-0.011670,-0.016417,1.000000,-0.000053,-0.000078,-0.000080,0.999919,0.005025,-0.010731,0.004731,0.570079,-1.232370,0.536023,0.999725,0.009353,0.021507,-0.009569,0.999905,0.009947,-0.021412,-0.010150,0.999719
31123,2,0,-65.0000,9.599895,-1.157383,-1.717197,-0.022223,-0.046983,0.007882,-0.004939,-0.013441,-0.018427,-0.071797,-0.547418,-0.910666,0.095999,-0.011583,-0.017165,1.000000,-0.000025,-0.000067,-0.000092,0.999919,0.004918,-0.010716,0.004710,0.557841,-1.230599,0.533795,0.999726,0.009314,0.021476,-0.009525,0.999907,0.009734,-0.021384,-0.009936,0.999722
31124,2,0,-65.0000,9.657928,-1.159911,-1.705209,-0.001096,-0.036685,0.062906,-0.002353,-0.017430,-0.015255,-0.068490,-0.545222,-0.905676,0.096580,-0.011607,-0.017044,1.000000,-0.000012,-0.000087,-0.000076,0.999920,0.004816,-0.010675,0.004698,0.546261,-1.225798,0.532518,0.999728,0.009292,0.021393,-0.009498,0.999909,0.009532,-0.021302,-0.009732,0.999726
31125,2,0,-65.0000,9.611790,-1.158112,-1.773336,-0.064904,-0.073302,0.029206,0.006415,-0.014632,-0.016633,-0.065576,-0.547181,-0.907618,0.096118,-0.011589,-0.017727,1.000000,0.000032,-0.000073,-0.000083,0.999921,0.004726,-0.010650,0.004729,0.535847,-1.222927,0.536188,0.999728,0.009356,0.021342,-0.009557,0.999911,0.009350,-0.021253,-0.009551,0.999729
31126,2,0,-64.0000,9.636994,-1.116341,-1.737936,-0.008133,-0.087282,0.042799,0.000490,-0.007876,-0.018078,-0.082013,-0.550047,-0.904494,0.096370,-0.011172,-0.017376,1.000000,0.000002,-0.000039,-0.000090,0.999921,0.004641,-0.010656,0.004727,0.526160,-1.223621,0.536079,0.999728,0.009354,0.021355,-0.009552,0.999912,0.009181,-0.021267,-0.009382,0.999730
31127,2,0,-65.0000,9.627560,-1.139102,-1.705356,0.004328,-0.048863,0.030752,0.000993,-0.007367,-0.013501,-0.067891,-0.550800,-0.908577,0.096275,-0.011397,-0.017050,1.000000,0.000005,-0.000037,-0.000068,0.999922,0.004578,-0.010654,0.004732,0.518868,-1.223337,0.536696,0.999728,0.009365,0.021350,-0.009560,0.999913,0.009054,-0.021263,-0.009255,0.999731
31128,2,0,-64.0000,9.645880,-1.149942,-1.656233,0.042666,-0.011541,0.041577,-0.002098,-0.009649,-0.016020,-0.072877,-0.547236,-0.904642,0.096459,-0.011507,-0.016558,1.000000,-0.000010,-0.000048,-0.000080,0.999922,0.004494,-0.010647,0.004716,0.509308,-1.222526,0.535055,0.999729,0.009336,0.021335,-0.009528,0.999915,0.008887,-0.021251,-0.009088,0.999733
31129,2,0,-65.0000,9.620774,-1.127035,-1.630858,0.070698,-0.015059,0.009938,-0.009275,-0.010383,-0.011911,-0.062915,-0.534046,-0.912761,0.096208,-0.011277,-0.016303,1.000000,-0.000046,-0.000052,-0.000060,0.999923,0.004418,-0.010627,0.004663,0.500633,-1.220169,0.529052,0.999731,0.009231,0.021294,-0.009419,0.999917,0.008736,-0.021212,-0.008934,0.999735
31130,2,0,-65.0000,9.594679,-1.028793,-1.622718,0.124953,-0.090853,-0.028740,-0.026140,-0.013084,-0.012635,-0.072474,-0.536469,-0.903232,0.095947,-0.010296,-0.016220,1.000000,-0.000131,-0.000065,-0.000063,0.999924,0.004313,-0.010597,0.004530,0.488756,-1.216539,0.513893,0.999734,0.008967,0.021231,-0.009150,0.999922,0.008528,-0.021153,-0.008720,0.999738
31131,2,0,-65.0000,9.630199,-0.976706,-1.541650,0.227637,-0.088253,-0.014129,-0.046003,-0.018442,-0.003350,-0.068304,-0.538371,-0.902209,0.096303,-0.009772,-0.015405,1.000000,-0.000230,-0.000092,-0.000017,0.999927,0.004207,-0.010519,0.004294,0.476942,-1.207412,0.487025,0.999742,0.008498,0.021072,-0.008675,0.999928,0.008322,-0.021000,-0.008503,0.999743
31132,2,0,-64.0000,9.598591,-0.945591,-1.620261,0.174477,-0.155215,-0.035274,-0.078225,-0.010803,-0.001524,-0.073750,-0.548643,-0.904687,0.095987,-0.009463,-0.016194,1.000000,-0.000391,-0.000054,-0.000008,0.999929,0.004096,-0.010467,0.003895,0.464756,-1.201209,0.441440,0.999751,0.007703,0.020964,-0.007874,0.999936,0.008110,-0.020900,-0.008273,0.999747
31133,2,0,-65.0000,9.519356,-0.899231,-1.665954,0.146263,-0.216096,-0.110416,-0.113282,-0.016262,-0.001244,-0.059725,-0.549247,-0.906239,0.095195,-0.009002,-0.016647,1.000000,-0.000566,-0.000081,-0.000006,0.999933,0.003933,-0.010392,0.003333,0.446804,-1.192302,0.377342,0.999762,0.006584,0.020808,-0.006748,0.999947,0.007796,-0.020756,-0.007935,0.999753
31134,2,0,-65.0000,9.574385,-0.996712,-1.761114,0.029258,-0.184274,-0.028568,-0.127955,-0.011028,0.012634,-0.069827,-0.544983,-0.903104,0.095745,-0.009972,-0.017599,1.000000,-0.000640,-0.000055,0.000063,0.999936,0.003825,-0.010299,0.002679,0.435254,-1.181418,0.302498,0.999773,0.005278,0.020618,-0.005436,0.999956,0.007595,-0.020577,-0.007705,0.999759
31135,2,0,-65.0000,9.579172,-1.052296,-1.803105,-0.032041,-0.159083,-0.009998,-0.114920,-0.008314,0.020089,-0.063245,-0.543036,-0.910174,0.095794,-0.010524,-0.018021,1.000000,-0.000575,-0.000042,0.000100,0.999939,0.003770,-0.010199,0.002073,0.429629,-1.169657,0.233136,0.999783,0.004068,0.020413,-0.004222,0.999963,0.007497,-0.020382,-0.007581,0.999764
31136,2,0,-65.0000,9.629103,-1.034427,-1.794569,-0.003136,-0.169778,0.035221,-0.096869,-0.000932,0.035860,-0.060307,-0.541704,-0.902840,0.096293,-0.010336,-0.017940,1.000000,-0.000484,-0.000005,0.000179,0.999941,0.003818,-0.010087,0.001542,0.435795,-1.156593,0.172358,0.999792,0.003008,0.020185,-0.003162,0.999966,0.007604,-0.020161,-0.007667,0.999767
31137,2,0,-65.0000,9.658993,-1.053258,-1.798680,-0.007848,-0.158373,0.067374,-0.075064,0.002329,0.051533,-0.065072,-0.546095,-0.904978,0.096592,-0.010514,-0.017984,1.000000,-0.000375,0.000012,0.000258,0.999942,0.003962,-0.009947,0.001094,0.452842,-1.140353,0.120884,0.999800,0.002109,0.019902,-0.002267,0.999966,0.007902,-0.019884,-0.007945,0.999771
31138,2,0,-65.0000,9.615276,-0.962525,-1.759065,0.066449,-0.216533,0.006833,-0.061107,0.004176,0.065210,-0.062566,-0.545323,-0.903562,0.096156,-0.009599,-0.017590,1.000000,-0.000306,0.000021,0.000326,0.999943,0.004184,-0.009778,0.000708,0.478677,-1.120792,0.076500,0.999808,0.001335,0.019560,-0.001499,0.999964,0.008353,-0.019548,-0.008381,0.999774
31139,2,0,-65.0000,9.674504,-0.925724,-1.781923,0.083008,-0.265854,0.064087,-0.054734,0.010136,0.085730,-0.061133,-0.546985,-0.905906,0.096748,-0.009221,-0.017822,1.000000,-0.000274,0.000051,0.000429,0.999944,0.004512,-0.009579,0.000330,0.516727,-1.097859,0.032915,0.999816,0.000574,0.019160,-0.000747,0.999959,0.009017,-0.019154,-0.009029,0.999776
31140,2,0,-65.0000,9.674080,-0.873161,-1.718128,0.167614,-0.283208,0.046009,-0.046777,0.008840,0.109822,-0.062966,-0.547025,-0.907481,0.096745,-0.008683,-0.017184,1.000000,-0.000234,0.000044,0.000549,0.999944,0.004945,-0.009309,-0.000029,0.566715,-1.066744,-0.008616,0.999827,-0.000150,0.018617,-0.000034,0.999951,0.009889,-0.018618,-0.009888,0.999778
31141,2,0,-64.0000,9.687387,-0.778983,-1.743749,0.204573,-0.386052,0.051493,-0.044159,0.009592,0.131280,-0.064599,-0.544409,-0.904587,0.096878,-0.007730,-0.017440,1.000000,-0.000221,0.000048,0.000656,0.999945,0.005470,-0.008986,-0.000397,0.627273,-1.029413,-0.051173,0.999838,-0.000893,0.017966,0.000696,0.999940,0.010946,-0.017974,-0.010932,0.999779
31142,2,0,-64.0000,9.691227,-0.711788,-1.735907,0.253870,-0.450296,0.044932,-0.055202,0.015284,0.161833,-0.061414,-0.548802,-0.904586,0.096917,-0.007044,-0.017365,1.000000,-0.000276,0.000076,0.000809,0.999944,0.006124,-0.008602,-0.000850,0.702657,-0.985137,-0.103403,0.999851,-0.001804,0.017193,0.001594,0.999924,0.012262,-0.017214,-0.012232,0.999777
31143,2,0,-64.0000,9.722474,-0.696737,-1.774257,0.244563,-0.498486,0.079310,-0.078501,0.020787,0.193947,-0.051053,-0.542974,-0.906277,0.097230,-0.006880,-0.017750,0.999999,-0.000393,0.000104,0.000970,0.999942,0.006898,-0.008156,-0.001442,0.791831,-0.933472,-0.171715,0.999863,-0.002997,0.016291,0.002772,0.999901,0.013818,-0.016331,-0.013771,0.999772
31144,2,0,-65.0000,9.706193,-0.669918,-1.778991,0.260245,-0.540638,0.059684,-0.094855,0.026253,0.231410,-0.063209,-0.554090,-0.897892,0.097067,-0.006595,-0.017800,0.999999,-0.000474,0.000131,0.001157,0.999938,0.007822,-0.007630,-0.002158,0.898364,-0.872396,-0.254164,0.999874,-0.004435,0.015226,0.004197,0.999868,0.015677,-0.015293,-0.015611,0.999761
31145,2,0,-65.0000,9.794622,-0.727569,-1.866422,0.187483,-0.561209,0.167160,-0.095245,0.032911,0.272968,-0.052777,-0.552267,-0.901606,0.097953,-0.007151,-0.018677,0.999999,-0.000476,0.000165,0.001365,0.999931,0.008934,-0.007021,-0.002919,1.026204,-0.801555,-0.341662,0.999884,-0.005963,0.013989,0.005712,0.999823,0.017908,-0.014094,-0.017826,0.999742
31146,2,0,-65.0000,9.871145,-0.635527,-1.931666,0.210090,-0.700498,0.239169,-0.085209,0.047830,0.320265,-0.056500,-0.554167,-0.902484,0.098717,-0.006205,-0.019338,0.999999,-0.000426,0.000239,0.001601,0.999920,0.010292,-0.006347,-0.003683,1.182101,-0.722980,-0.429496,0.999892,-0.007495,0.012618,0.007234,0.999761,0.020628,-0.012770,-0.020535,0.999708
31147,2,0,-65.0000,9.871225,-0.591211,-2.122025,0.089087,-0.870510,0.263411,-0.072788,0.063673,0.374955,-0.050674,-0.562097,-0.894828,0.098716,-0.005735,-0.021250,0.999998,-0.000364,0.000318,0.001875,0.999903,0.011928,-0.005595,-0.004444,1.369777,-0.635037,-0.516864,0.999898,-0.009020,0.011083,0.008753,0.999676,0.023903,-0.011295,-0.023804,0.999653
31148,2,0,-65.0000,9.946711,-0.558156,-2.146318,0.116260,-0.950216,0.333184,-0.062407,0.104056,0.429318,-0.042810,-0.554795,-0.895428,0.099468,-0.005375,-0.021513,0.999998,-0.000312,0.000520,0.002147,0.999878,0.013906,-0.004867,-0.005233,1.596565,-0.549270,-0.607354,0.999898,-0.010600,0.009586,0.010329,0.999558,0.027860,-0.009878,-0.027759,0.999566
31149,2,0,-65.0000,9.863691,-0.559806,-2.201464,0.064977,-1.019286,0.257510,-0.059342,0.132535,0.485582,-0.044343,-0.569460,-0.894816,0.098636,-0.005365,-0.022078,0.999997,-0.000297,0.000663,0.002428,0.999842,0.016193,-0.004108,-0.006082,1.858499,-0.459363,-0.704532,0.999892,-0.012296,0.008017,0.012030,0.999402,0.032430,-0.008411,-0.032330,0.999442
31150,2,0,-65.0000,9.951445,-0.617914,-2.256416,0.022946,-1.052585,0.355684,-0.058765,0.162668,0.548196,-0.042390,-0.570077,-0.888253,0.099513,-0.005913,-0.022643,0.999996,-0.000294,0.000813,0.002741,0.999793,0.018817,-0.003307,-0.007001,2.159042,-0.363830,-0.809218,0.999880,-0.014123,0.006350,0.013874,0.999194,0.037673,-0.006877,-0.037580,0.999270
31151,2,0,-65.0000,9.930931,-0.619807,-2.168656,0.104614,-1.060569,0.315222,-0.046172,0.197582,0.611961,-0.038092,-0.573459,-0.884500,0.099306,-0.005899,-0.021783,0.999995,-0.000231,0.000988,0.003060,0.999728,0.021808,-0.002485,-0.007942,2.501398,-0.264872,-0.916140,0.999861,-0.015989,0.004623,0.015772,0.998923,0.043643,-0.005316,-0.043564,0.999036
31152,2,0,-65.0000,9.863448,-0.612267,-2.044848,0.211270,-1.062519,0.220751,-0.034608,0.226809,0.685599,-0.035021,-0.583470,-0.884221,0.098631,-0.005788,-0.020559,0.999993,-0.000173,0.001134,0.003428,0.999642,0.025192,-0.001589,-0.008911,2.888591,-0.156349,-1.025423,0.999836,-0.017896,0.002729,0.017736,0.998572,0.050394,-0.003627,-0.050337,0.998726
31153,2,0,-65.0000,9.815257,-0.754648,-2.072885,0.121240,-1.026711,0.194124,-0.011681,0.249267,0.755210,-0.030884,-0.591663,-0.881936,0.098154,-0.007177,-0.020851,0.999992,-0.000058,0.001246,0.003776,0.999532,0.028945,-0.000605,-0.009853,3.317833,-0.036657,-1.130609,0.999805,-0.019732,0.000640,0.019661,0.998130,0.057875,-0.001781,-0.057851,0.998324
31154,2,0,-65.0000,9.900449,-0.452752,-1.682220,0.636493,-1.158330,0.152566,0.008568,0.280473,0.824343,-0.031133,-0.594813,-0.875355,0.098998,-0.004119,-0.016961,0.999991,0.000043,0.001402,0.004122,0.999394,0.033088,0.000430,-0.010774,3.791560,0.090086,-1.232306,0.999767,-0.021506,-0.001572,0.021563,0.997578,0.066127,0.000146,-0.066145,0.997810
31155,2,0,-65.0000,9.732429,-0.523732,-1.594206,0.654947,-1.126472,-0.023032,-0.019471,0.287877,0.905830,-0.031544,-0.601335,-0.866229,0.097324,-0.004798,-0.016082,0.999989,-0.000097,0.001439,0.004529,0.999222,0.037552,0.001657,-0.011914,4.301569,0.240949,-1.357235,0.999711,-0.023686,-0.004205,0.023935,0.996896,0.075005,0.002416,-0.075084,0.997174
31156,2,0,-65.0000,9.935630,-0.500273,-1.480082,0.831456,-1.194335,0.139150,-0.069741,0.299312,0.973965,-0.021540,-0.612343,-0.863320,0.099357,-0.004524,-0.014948,0.999987,-0.000349,0.001497,0.004870,0.999012,0.042269,0.003028,-0.013361,4.840097,0.411362,-1.515100,0.999625,-0.026440,-0.007180,0.026952,0.996070,0.084373,0.004921,-0.084535,0.996408
31157,2,0,-65.0000,9.834962,-1.020427,-1.577583,0.491448,-0.897752,0.147640,-0.105191,0.312132,1.036977,-0.013831,-0.613792,-0.852345,0.098376,-0.009703,-0.015924,0.999985,-0.000526,0.001561,0.005185,0.998760,0.047234,0.004520,-0.015044,5.406476,0.598802,-1.697666,0.999506,-0.029624,-0.010451,0.030478,0.995085,0.094216,0.007608,-0.094488,0.995497
31158,2,0,-65.0000,10.077125,-1.385155,-1.478370,0.480091,-0.666367,0.433145,-0.106965,0.295721,1.095173,-0.012403,-0.632332,-0.842398,0.100823,-0.013308,-0.014926,0.999984,-0.000535,0.001479,0.005476,0.998466,0.052397,0.006239,-0.016772,5.994598,0.814623,-1.882027,0.999360,-0.032838,-0.014217,0.034146,0.993947,0.104424,0.010702,-0.104843,0.994431
31159,2,0,-65.0000,10.250069,-1.783907,-1.639921,0.223767,-0.546590,0.703279,-0.092013,0.310825,1.139569,-0.005945,-0.643158,-0.843921,0.102575,-0.017262,-0.016551,0.999982,-0.000460,0.001554,0.005698,0.998125,0.057797,0.008009,-0.018487,6.609359,1.038490,-2.062225,0.999188,-0.035979,-0.018124,0.037830,0.992636,0.115081,0.013850,-0.115673,0.993191
31160,2,0,-65.0000,10.518146,-2.044584,-1.796758,0.066505,-0.562178,1.037114,-0.006155,0.312438,1.183083,0.003723,-0.651641,-0.837923,0.105272,-0.019824,-0.018131,0.999981,-0.000031,0.001562,0.005915,0.997738,0.063481,0.009861,-0.019813,7.256665,1.271689,-2.194650,0.999020,-0.038285,-0.022193,0.040789,0.991155,0.126283,0.017162,-0.127065,0.991746
31161,2,0,-65.0000,10.961314,-2.062119,-1.982611,0.050727,-0.834617,1.484773,0.073685,0.319593,1.233092,0.008563,-0.662252,-0.828028,0.109706,-0.019938,-0.020009,0.999980,0.000368,0.001598,0.006165,0.997296,0.069482,0.011790,-0.020816,7.940551,1.513339,-2.286372,0.998855,-0.039880,-0.026410,0.043157,0.989478,0.138097,0.020624,-0.139079,0.990066
31162,2,0,-65.0000,11.684481,-1.966482,-2.295226,0.057320,-1.329612,2.182682,0.148280,0.343251,1.290183,0.002932,-0.674160,-0.818171,0.116929,-0.018894,-0.023167,0.999977,0.000741,0.001716,0.006451,0.996791,0.075866,0.013745,-0.021510,8.668901,1.757231,-2.339226,0.998697,-0.040797,-0.030665,0.044968,0.987563,0.150653,0.024137,-0.151836,0.988111
31163,2,0,-65.0000,12.452250,-1.467111,-2.402333,0.446087,-2.088481,2.773758,0.244171,0.388912,1.358679,0.019974,-0.680835,-0.801120,0.124571,-0.013795,-0.024283,0.999974,0.001221,0.001945,0.006793,0.996207,0.082761,0.015650,-0.021850,9.457163,1.994209,-2.347959,0.998555,-0.040943,-0.034798,0.046124,0.985346,0.164211,0.027565,-0.165578,0.985811
31164,2,0,-64.0000,13.187048,-0.944726,-2.575629,0.786222,-2.925598,3.311480,0.317372,0.418221,1.446387,0.016754,-0.685826,-0.794591,0.131880,-0.008452,-0.026046,0.999970,0.001587,0.002091,0.007232,0.995528,0.090176,0.017636,-0.021925,10.306150,2.239018,-2.321362,0.998417,-0.040473,-0.039068,0.046835,0.982775,0.178771,0.031160,-0.180318,0.983115
31165,2,0,-64.0000,14.293726,-0.380818,-2.703507,1.289166,-3.874243,4.154707,0.402990,0.432590,1.538561,0.025684,-0.701464,-0.786413,0.142902,-0.002654,-0.027350,0.999966,0.002015,0.002163,0.007693,0.994743,0.098106,0.019769,-0.021696,11.215973,2.498176,-2.253545,0.998277,-0.039284,-0.043588,0.047042,0.979809,0.194323,0.035074,-0.196039,0.979969
31166,2,0,-65.0000,15.724179,-0.013201,-2.534750,2.047192,-4.611761,5.293904,0.477818,0.425365,1.647539,0.027617,-0.717124,-0.766300,0.157181,0.001224,-0.025680,0.999961,0.002389,0.002127,0.008238,0.993834,0.106552,0.022184,-0.021159,12.186871,2.785925,-2.141896,0.998120,-0.037330,-0.048604,0.046785,0.976398,0.210851,0.039586,-0.212729,0.976309
31167,2,0,-64.0000,16.732673,0.101012,-2.464500,2.510784,-5.158913,6.097661,0.548286,0.424323,1.805854,0.036620,-0.727564,-0.745848,0.167255,0.002589,-0.024994,0.999953,0.002741,0.002122,0.009029,0.992756,0.115726,0.024993,-0.020429,13.243692,3.115725,-1.995956,0.997916,-0.034777,-0.054353,0.046347,0.972380,0.228755,0.044896,-0.230797,0.971966
31168,2,0,-64.0000,17.067039,0.088966,-2.439843,2.712906,-5.517970,6.294026,0.591323,0.426830,1.952938,0.045046,-0.741219,-0.735544,0.170598,0.002629,-0.024757,0.999946,0.002957,0.002134,0.009765,0.991494,0.125551,0.028158,-0.019576,14.378253,3.483031,-1.822775,0.997648,-0.031749,-0.060753,0.045890,0.967707,0.247864,0.050922,-0.250068,0.966888
