// General information: 
//  MT Manager version: 2020.3.0 
//  XDA version: 2020.3.0 build 5439 rev 106958 built on 2020-11-10
// Device information: 
//  DeviceId: 00B46A08
//  ProductCode: MTW2-3A7G6
//  Firmware Version: 4.4.0
//  Hardware Version: 2.0.0
// Device settings: 
//  Filter Profile: human(46.1)
//  Option Flags: Orientation Smoother Disabled, Position/Velocity Smoother Disabled, Continuous Zero Rotation Update Disabled, AHS Disabled, ICC Disabled
// Coordinate system: ENU
PacketCounter,StatusWord,ClippingFlags,RSSI,Acc_X,Acc_Y,Acc_Z,FreeAcc_E,FreeAcc_N,FreeAcc_U,Gyr_X,Gyr_Y,Gyr_Z,Mag_X,Mag_Y,Mag_Z,VelInc_X,VelInc_Y,VelInc_Z,OriInc_q0,OriInc_q1,OriInc_q2,OriInc_q3,Quat_q0,Quat_q1,Quat_q2,Quat_q3,Roll,Pitch,Yaw,Mat[1][1],Mat[2][1],Mat[3][1],Mat[1][2],Mat[2][2],Mat[3][2],Mat[1][3],Mat[2][3],Mat[3][3]
30829,2,0,-55.0000,8.830786,-0.471057,4.326206,-0.038987,-0.000731,0.032068,0.013172,0.021178,-0.018015,-0.448355,-0.034184,-0.917136,0.088312,-0.004721,0.043252,1.000000,0.000066,0.000106,-0.000090,0.999913,-0.010372,-0.007922,-0.001852,-1.186958,-0.909948,-0.202792,0.999868,-0.003539,0.015881,0.003868,0.999778,-0.020712,-0.015804,0.020771,0.999659
30830,2,0,-55.0000,8.846350,-0.484819,4.319267,-0.025155,-0.017186,0.043686,0.006045,0.018561,-0.021095,-0.456639,-0.035319,-0.921420,0.088467,-0.004859,0.043184,1.000000,0.000030,0.000093,-0.000105,0.999915,-0.010247,-0.007848,-0.001867,-1.172680,-0.901462,-0.204772,0.999870,-0.003573,0.015733,0.003895,0.999783,-0.020463,-0.015656,0.020522,0.999667
30831,2,0,-55.0000,8.858536,-0.481056,4.341366,-0.038265,-0.014036,0.064097,0.006134,0.010753,-0.020632,-0.457867,-0.034533,-0.913132,0.088587,-0.004821,0.043409,1.000000,0.000031,0.000054,-0.000103,0.999916,-0.010126,-0.007809,-0.001888,-1.158817,-0.896962,-0.207279,0.999871,-0.003617,0.015654,0.003934,0.999788,-0.020221,-0.015578,0.020280,0.999673
30832,2,0,-55.0000,8.861520,-0.513040,4.343146,-0.039613,-0.048416,0.069051,0.009607,0.013705,-0.025106,-0.459942,-0.033032,-0.907152,0.088618,-0.005144,0.043425,1.000000,0.000048,0.000069,-0.000126,0.999918,-0.009977,-0.007760,-0.001895,-1.141737,-0.891374,-0.208337,0.999872,-0.003636,0.015557,0.003945,0.999794,-0.019923,-0.015481,0.019982,0.999680
30833,2,0,-56.0000,8.874078,-0.491786,4.334847,-0.024719,-0.030715,0.075713,0.012027,0.009701,-0.027453,-0.451095,-0.039158,-0.907807,0.088742,-0.004933,0.043344,1.000000,0.000060,0.000049,-0.000137,0.999920,-0.009814,-0.007735,-0.001899,-1.123003,-0.888457,-0.208879,0.999873,-0.003645,0.015506,0.003949,0.999800,-0.019596,-0.015431,0.019655,0.999688
30834,2,0,-56.0000,8.899325,-0.468632,4.347374,-0.022731,-0.009635,0.102788,0.016111,0.014494,-0.026978,-0.452715,-0.033946,-0.917114,0.088996,-0.004702,0.043467,1.000000,0.000081,0.000072,-0.000135,0.999922,-0.009642,-0.007683,-0.001881,-1.103301,-0.882429,-0.207115,0.999875,-0.003614,0.015401,0.003911,0.999807,-0.019253,-0.015328,0.019311,0.999696
30835,2,0,-56.0000,8.927792,-0.479500,4.361015,-0.021822,-0.022726,0.134817,0.020392,0.019091,-0.030301,-0.451000,-0.034537,-0.917437,0.089281,-0.004813,0.043601,1.000000,0.000102,0.000095,-0.000152,0.999925,-0.009443,-0.007607,-0.001864,-1.080565,-0.873634,-0.205373,0.999877,-0.003584,0.015247,0.003871,0.999815,-0.018856,-0.015177,0.018913,0.999706
30836,2,0,-56.0000,8.897777,-0.461535,4.351301,-0.023155,-0.010112,0.102787,0.029873,0.031044,-0.029523,-0.453824,-0.042584,-0.913267,0.088984,-0.004635,0.043499,1.000000,0.000149,0.000155,-0.000148,0.999928,-0.009224,-0.007472,-0.001794,-1.055572,-0.858119,-0.197667,0.999882,-0.003450,0.014976,0.003725,0.999823,-0.018420,-0.014910,0.018474,0.999718
30837,2,0,-56.0000,8.896602,-0.457503,4.354128,-0.023342,-0.010372,0.102786,0.038906,0.028953,-0.027467,-0.450448,-0.040814,-0.913337,0.088972,-0.004596,0.043528,1.000000,0.000195,0.000145,-0.000137,0.999931,-0.008993,-0.007345,-0.001693,-1.029246,-0.843375,-0.186497,0.999886,-0.003255,0.014719,0.003519,0.999832,-0.017961,-0.014658,0.018011,0.999730
30838,2,0,-56.0000,8.913472,-0.397938,4.427662,-0.075401,0.049926,0.147451,0.035761,0.038939,-0.030551,-0.455117,-0.034578,-0.909326,0.089143,-0.004001,0.044259,1.000000,0.000179,0.000195,-0.000153,0.999935,-0.008755,-0.007171,-0.001601,-1.001988,-0.823342,-0.176239,0.999892,-0.003076,0.014370,0.003327,0.999842,-0.017485,-0.014313,0.017531,0.999744
30839,2,0,-56.0000,8.895395,-0.378144,4.440089,-0.089684,0.065910,0.135832,0.029721,0.042296,-0.024722,-0.448711,-0.036820,-0.915860,0.088963,-0.003799,0.044382,1.000000,0.000149,0.000211,-0.000124,0.999938,-0.008554,-0.006979,-0.001532,-0.979048,-0.801157,-0.168715,0.999898,-0.002944,0.013982,0.003183,0.999849,-0.017085,-0.013930,0.017128,0.999756
30840,2,0,-56.0000,8.926670,-0.389547,4.396391,-0.033658,0.047762,0.145326,0.029410,0.041384,-0.027201,-0.459435,-0.037154,-0.913706,0.089275,-0.003914,0.043945,1.000000,0.000147,0.000207,-0.000136,0.999941,-0.008343,-0.006792,-0.001461,-0.955027,-0.779658,-0.160884,0.999903,-0.002808,0.013607,0.003034,0.999857,-0.016666,-0.013558,0.016706,0.999769
30841,2,0,-56.0000,8.835762,-0.431511,4.315129,0.000575,-0.005217,0.029934,0.029570,0.044612,-0.025716,-0.456937,-0.034801,-0.920995,0.088367,-0.004333,0.043131,1.000000,0.000148,0.000223,-0.000129,0.999944,-0.008139,-0.006588,-0.001390,-0.931629,-0.756219,-0.153112,0.999909,-0.002672,0.013198,0.002887,0.999864,-0.016258,-0.013153,0.016294,0.999781
30842,2,0,-56.0000,8.766941,-0.418471,4.244663,0.038137,-0.002736,-0.063325,0.052114,0.044849,-0.028704,-0.454575,-0.039396,-0.923288,0.087678,-0.004208,0.042426,1.000000,0.000261,0.000224,-0.000144,0.999948,-0.007870,-0.006384,-0.001221,-0.900987,-0.732620,-0.134135,0.999916,-0.002341,0.012786,0.002542,0.999873,-0.015723,-0.012748,0.015754,0.999795
30843,2,0,-56.0000,8.736391,-0.399394,4.236038,0.036832,0.009898,-0.095352,0.063678,0.030956,-0.028495,-0.453942,-0.042614,-0.914576,0.087370,-0.004020,0.042346,1.000000,0.000318,0.000155,-0.000142,0.999951,-0.007581,-0.006247,-0.000999,-0.868016,-0.716758,-0.109003,0.999920,-0.001902,0.012509,0.002092,0.999883,-0.015148,-0.012479,0.015173,0.999807
30844,2,0,-56.0000,8.827270,-0.416034,4.385258,-0.055260,-0.000828,0.052463,0.062189,0.025383,-0.029820,-0.458493,-0.039342,-0.920206,0.088278,-0.004187,0.043840,1.000000,0.000311,0.000127,-0.000149,0.999954,-0.007290,-0.006140,-0.000784,-0.834856,-0.704274,-0.084666,0.999923,-0.001478,0.012292,0.001657,0.999892,-0.014569,-0.012269,0.014589,0.999818
30845,2,0,-56.0000,8.847255,-0.406295,4.489414,-0.136607,0.010737,0.115810,0.056369,0.034060,-0.027299,-0.454472,-0.036433,-0.913212,0.088480,-0.004088,0.044878,1.000000,0.000282,0.000170,-0.000136,0.999957,-0.007020,-0.005990,-0.000604,-0.804030,-0.686916,-0.064395,0.999928,-0.001124,0.011989,0.001292,0.999901,-0.014032,-0.011972,0.014046,0.999830
30846,2,0,-56.0000,8.875008,-0.415648,4.504650,-0.135745,-0.002348,0.147834,0.061419,0.028317,-0.019427,-0.455361,-0.042356,-0.916867,0.088756,-0.004179,0.045033,1.000000,0.000307,0.000142,-0.000097,0.999960,-0.006776,-0.005865,-0.000370,-0.776292,-0.672386,-0.037824,0.999931,-0.000660,0.011735,0.000819,0.999908,-0.013548,-0.011725,0.013556,0.999839
30847,2,0,-56.0000,8.861390,-0.396525,4.456513,-0.094897,0.008586,0.113686,0.060423,0.032408,-0.016290,-0.456584,-0.040237,-0.922269,0.088621,-0.003986,0.044550,1.000000,0.000302,0.000162,-0.000081,0.999962,-0.006548,-0.005720,-0.000139,-0.750260,-0.655560,-0.011669,0.999935,-0.000204,0.011441,0.000353,0.999914,-0.013093,-0.011438,0.013096,0.999849
30848,2,0,-56.0000,8.873477,-0.340597,4.389709,-0.023675,0.055369,0.092893,0.062869,0.033937,-0.018131,-0.446090,-0.036755,-0.917190,0.088742,-0.003428,0.043881,1.000000,0.000314,0.000170,-0.000091,0.999965,-0.006305,-0.005566,0.000103,-0.722627,-0.637783,0.015860,0.999938,0.000277,0.011131,-0.000136,0.999920,-0.012611,-0.011134,0.012609,0.999859
30849,2,0,-55.0000,8.804889,-0.344523,4.348426,-0.014203,0.043331,0.013374,0.058310,0.033939,-0.016785,-0.453825,-0.036308,-0.916278,0.088056,-0.003465,0.043468,1.000000,0.000292,0.000170,-0.000084,0.999967,-0.006080,-0.005411,0.000328,-0.696902,-0.619780,0.041410,0.999941,0.000723,0.010817,-0.000591,0.999926,-0.012162,-0.010825,0.012155,0.999868
30850,2,0,-55.0000,8.739727,-0.399688,4.338005,-0.034020,-0.017418,-0.047473,0.054375,0.026840,-0.016263,-0.447136,-0.041659,-0.919671,0.087403,-0.004016,0.043367,1.000000,0.000272,0.000134,-0.000081,0.999969,-0.005866,-0.005292,0.000538,-0.672590,-0.606065,0.065258,0.999943,0.001139,0.010578,-0.001015,0.999931,-0.011738,-0.010590,0.011727,0.999875
30851,2,0,-56.0000,8.698235,-0.350417,4.245573,0.033938,0.020944,-0.127369,0.065245,-0.002034,-0.017141,-0.441958,-0.035059,-0.918465,0.086982,-0.003525,0.042455,1.000000,0.000326,-0.000010,-0.000086,0.999970,-0.005633,-0.005316,0.000799,-0.646034,-0.608667,0.095040,0.999942,0.001659,0.010623,-0.001539,0.999935,-0.011275,-0.010641,0.011258,0.999880
30852,2,0,-56.0000,8.812156,-0.313161,4.402426,-0.054862,0.065632,0.042575,0.050064,-0.009752,-0.009597,-0.448490,-0.044309,-0.920900,0.088119,-0.003147,0.044028,1.000000,0.000250,-0.000049,-0.000048,0.999970,-0.005469,-0.005378,0.001011,-0.627384,-0.615663,0.119230,0.999940,0.002081,0.010745,-0.001963,0.999938,-0.010949,-0.010767,0.010927,0.999882
30853,2,0,-56.0000,8.852657,-0.410587,4.386787,-0.029102,-0.035360,0.075686,0.049414,-0.008169,-0.009269,-0.450647,-0.039973,-0.918711,0.088525,-0.004121,0.043870,1.000000,0.000247,-0.000041,-0.000046,0.999970,-0.005308,-0.005427,0.001219,-0.609058,-0.621183,0.142992,0.999938,0.002496,0.010841,-0.002380,0.999941,-0.010629,-0.010867,0.010603,0.999885
30854,2,0,-56.0000,8.941957,-0.345068,4.441345,-0.035693,0.031669,0.177354,0.040637,-0.001739,-0.003606,-0.451137,-0.033245,-0.915177,0.089419,-0.003461,0.044414,1.000000,0.000203,-0.000009,-0.000018,0.999971,-0.005190,-0.005448,0.001401,-0.595623,-0.623438,0.163734,0.999937,0.002858,0.010881,-0.002744,0.999942,-0.010395,-0.010910,0.010364,0.999887
30855,2,0,-56.0000,8.965028,-0.411130,4.406453,0.004072,-0.038511,0.185117,0.037091,0.040652,-0.002515,-0.449795,-0.038327,-0.919417,0.089659,-0.004121,0.044046,1.000000,0.000185,0.000203,-0.000013,0.999972,-0.005075,-0.005255,0.001572,-0.582546,-0.601312,0.183173,0.999940,0.003197,0.010495,-0.003090,0.999944,-0.010167,-0.010527,0.010134,0.999893
30856,2,0,-56.0000,8.738491,-0.310632,4.422871,-0.101159,0.057997,-0.014427,0.043130,0.057327,-0.001615,-0.450136,-0.033031,-0.914316,0.087398,-0.003117,0.044203,1.000000,0.000216,0.000287,-0.000008,0.999974,-0.004945,-0.004980,0.001759,-0.567630,-0.569720,0.204428,0.999944,0.003568,0.009943,-0.003469,0.999945,-0.009906,-0.009978,0.009871,0.999901
30857,2,0,-56.0000,8.685505,-0.349629,4.404351,-0.105764,0.015226,-0.068606,0.037794,0.034714,0.002934,-0.454782,-0.035592,-0.918803,0.086863,-0.003503,0.044028,1.000000,0.000189,0.000174,0.000015,0.999975,-0.004855,-0.004816,0.001950,-0.557397,-0.550776,0.226173,0.999946,0.003947,0.009613,-0.003854,0.999945,-0.009728,-0.009651,0.009690,0.999906
30858,2,0,-56.0000,8.655227,-0.350515,4.424189,-0.135221,0.013302,-0.086907,0.049614,0.005193,0.004251,-0.445760,-0.038351,-0.921190,0.086553,-0.003514,0.044239,1.000000,0.000248,0.000026,0.000021,0.999975,-0.004749,-0.004799,0.002188,-0.545462,-0.548747,0.253381,0.999944,0.004422,0.009577,-0.004331,0.999945,-0.009520,-0.009619,0.009478,0.999909
30859,2,0,-56.0000,8.732232,-0.287695,4.457135,-0.128829,0.076987,-0.005640,0.049573,-0.032332,0.007170,-0.452171,-0.031260,-0.925055,0.087315,-0.002885,0.044585,1.000000,0.000248,-0.000162,0.000036,0.999974,-0.004669,-0.004967,0.002448,-0.536437,-0.567891,0.283149,0.999939,0.004942,0.009911,-0.004849,0.999944,-0.009362,-0.009957,0.009313,0.999907
30860,2,0,-57.0000,8.837221,-0.343836,4.483322,-0.111734,0.021940,0.102045,0.049427,-0.030027,0.006168,-0.451432,-0.044330,-0.918587,0.088366,-0.003447,0.044846,1.000000,0.000247,-0.000150,0.000031,0.999973,-0.004582,-0.005126,0.002695,-0.526652,-0.585937,0.311502,0.999933,0.005436,0.010226,-0.005342,0.999943,-0.009191,-0.010276,0.009136,0.999905
30861,2,0,-57.0000,8.834436,-0.324346,4.510523,-0.138970,0.041331,0.110833,0.041727,-0.020075,0.004372,-0.449988,-0.041952,-0.918224,0.088340,-0.003251,0.045113,1.000000,0.000209,-0.000100,0.000022,0.999972,-0.004503,-0.005234,0.002908,-0.517762,-0.598229,0.335897,0.999928,0.005862,0.010441,-0.005768,0.999943,-0.009036,-0.010493,0.008975,0.999905
30862,2,0,-57.0000,8.839151,-0.340820,4.479746,-0.112168,0.021501,0.102041,0.034654,-0.017228,0.001773,-0.452383,-0.041619,-0.919747,0.088388,-0.003415,0.044804,1.000000,0.000173,-0.000086,0.000009,0.999971,-0.004426,-0.005330,0.003077,-0.509084,-0.609198,0.355293,0.999924,0.006201,0.010632,-0.006106,0.999942,-0.008885,-0.010687,0.008819,0.999904
30863,2,0,-57.0000,8.873152,-0.338945,4.401341,-0.027972,0.017913,0.097833,0.027210,-0.002901,0.007717,-0.462912,-0.042441,-0.917143,0.088731,-0.003392,0.044014,1.000000,0.000136,-0.000015,0.000039,0.999971,-0.004388,-0.005352,0.003215,-0.504812,-0.611644,0.371083,0.999922,0.006476,0.010675,-0.006382,0.999941,-0.008810,-0.010731,0.008741,0.999904
30864,2,0,-57.0000,8.860177,-0.356956,4.411081,-0.043370,-0.000245,0.091146,0.022548,0.004904,0.008548,-0.451593,-0.041361,-0.917684,0.088603,-0.003571,0.044108,1.000000,0.000113,0.000025,0.000043,0.999971,-0.004363,-0.005336,0.003341,-0.501986,-0.609765,0.385580,0.999921,0.006729,0.010642,-0.006636,0.999940,-0.008761,-0.010701,0.008689,0.999905
30865,2,0,-57.0000,8.802107,-0.312423,4.356473,-0.017678,0.039799,0.013383,0.019517,0.007043,0.005921,-0.454883,-0.037895,-0.913825,0.088023,-0.003126,0.043561,1.000000,0.000098,0.000035,0.000030,0.999971,-0.004331,-0.005313,0.003439,-0.498423,-0.607057,0.396721,0.999920,0.006924,0.010595,-0.006832,0.999939,-0.008699,-0.010655,0.008625,0.999906
30866,2,0,-57.0000,8.860626,-0.307302,4.320978,0.040544,0.042957,0.049994,0.018349,0.002377,0.007105,-0.454440,-0.045568,-0.916239,0.088607,-0.003074,0.043208,1.000000,0.000092,0.000012,0.000036,0.999970,-0.004309,-0.005310,0.003544,-0.496002,-0.606696,0.408752,0.999918,0.007134,0.010589,-0.007042,0.999938,-0.008656,-0.010650,0.008581,0.999906
30867,2,0,-57.0000,8.844024,-0.291122,4.329685,0.026222,0.058940,0.038380,0.018852,0.003096,0.005777,-0.454589,-0.043201,-0.928209,0.088441,-0.002913,0.043295,1.000000,0.000094,0.000015,0.000029,0.999970,-0.004280,-0.005305,0.003639,-0.492656,-0.606163,0.419603,0.999917,0.007323,0.010579,-0.007232,0.999937,-0.008598,-0.010642,0.008521,0.999907
30868,2,0,-56.0000,8.818406,-0.310946,4.318735,0.023803,0.037422,0.011287,0.023095,0.002176,0.001950,-0.444236,-0.036476,-0.921142,0.088185,-0.003114,0.043186,1.000000,0.000115,0.000011,0.000010,0.999970,-0.004225,-0.005305,0.003754,-0.486393,-0.606090,0.432731,0.999916,0.007552,0.010578,-0.007462,0.999936,-0.008489,-0.010641,0.008409,0.999908
30869,2,0,-56.0000,8.818418,-0.310267,4.318759,0.023651,0.037198,0.011288,0.021422,-0.003206,0.004463,-0.449375,-0.038416,-0.921820,0.088184,-0.003105,0.043189,1.000000,0.000107,-0.000016,0.000022,0.999970,-0.004186,-0.005327,0.003866,-0.482044,-0.608559,0.445530,0.999913,0.007775,0.010621,-0.007686,0.999935,-0.008413,-0.010686,0.008330,0.999908
30870,2,0,-56.0000,8.856350,-0.303448,4.380915,-0.015510,0.047053,0.072502,0.017936,-0.005239,-0.002102,-0.451065,-0.041649,-0.918225,0.088562,-0.003039,0.043811,1.000000,0.000090,-0.000026,-0.000011,0.999969,-0.004126,-0.005365,0.003949,-0.475247,-0.612900,0.455127,0.999911,0.007943,0.010697,-0.007854,0.999935,-0.008294,-0.010762,0.008209,0.999908
30871,2,0,-57.0000,8.827220,-0.305127,4.398466,-0.044921,0.045129,0.054195,0.015780,-0.005814,0.002209,-0.452427,-0.036656,-0.917260,0.088271,-0.003054,0.043987,1.000000,0.000079,-0.000029,0.000011,0.999969,-0.004090,-0.005402,0.004030,-0.471235,-0.617166,0.464388,0.999909,0.008105,0.010771,-0.008016,0.999934,-0.008224,-0.010837,0.008137,0.999908
30872,2,0,-56.0000,8.852935,-0.284096,4.409296,-0.042966,0.066183,0.081292,0.018232,-0.004299,0.000366,-0.455787,-0.034424,-0.913913,0.088528,-0.002845,0.044095,1.000000,0.000091,-0.000021,0.000002,0.999969,-0.004041,-0.005435,0.004121,-0.465599,-0.620879,0.474755,0.999907,0.008285,0.010836,-0.008198,0.999933,-0.008126,-0.010903,0.008036,0.999908
30873,2,0,-56.0000,8.844104,-0.319747,4.389316,-0.031342,0.028478,0.065810,0.016283,-0.005095,0.000881,-0.455669,-0.046379,-0.912605,0.088440,-0.003201,0.043895,1.000000,0.000081,-0.000025,0.000004,0.999968,-0.004000,-0.005472,0.004216,-0.461010,-0.625144,0.485654,0.999905,0.008476,0.010911,-0.008388,0.999932,-0.008046,-0.010978,0.007953,0.999908
30874,2,0,-57.0000,8.843888,-0.335447,4.419572,-0.059714,0.013679,0.079519,0.013414,0.000272,-0.000278,-0.452532,-0.040754,-0.915291,0.088439,-0.003358,0.044195,1.000000,0.000067,0.000001,-0.000001,0.999968,-0.003957,-0.005482,0.004283,-0.456124,-0.626289,0.493299,0.999903,0.008609,0.010931,-0.008522,0.999932,-0.007960,-0.010998,0.007866,0.999909
30875,2,0,-56.0000,8.839983,-0.316927,4.448885,-0.087012,0.033002,0.088305,0.012267,0.001132,0.001378,-0.452391,-0.045777,-0.919742,0.088400,-0.003171,0.044488,1.000000,0.000061,0.000006,0.000007,0.999968,-0.003922,-0.005489,0.004333,-0.452146,-0.627053,0.498957,0.999902,0.008708,0.010944,-0.008622,0.999932,-0.007891,-0.011012,0.007796,0.999909
30876,2,0,-56.0000,8.843625,-0.334737,4.420153,-0.060203,0.013179,0.079517,0.014328,0.008616,0.007594,-0.461158,-0.041933,-0.921865,0.088438,-0.003347,0.044197,1.000000,0.000072,0.000043,0.000038,0.999968,-0.003910,-0.005455,0.004420,-0.450804,-0.623132,0.508932,0.999901,0.008882,0.010875,-0.008797,0.999930,-0.007867,-0.010945,0.007771,0.999910
30877,2,0,-56.0000,8.843322,-0.318318,4.390996,-0.032310,0.027480,0.065810,0.010241,0.019206,0.002291,-0.457467,-0.048478,-0.921274,0.088437,-0.003184,0.043901,1.000000,0.000051,0.000096,0.000011,0.999968,-0.003879,-0.005371,0.004459,-0.447242,-0.613488,0.513398,0.999903,0.008960,0.010707,-0.008877,0.999930,-0.007805,-0.010776,0.007710,0.999912
30878,2,0,-57.0000,8.851139,-0.298123,4.442803,-0.072562,0.050194,0.094999,0.013426,0.020307,0.006384,-0.446403,-0.037894,-0.923601,0.088516,-0.002981,0.044419,1.000000,0.000067,0.000102,0.000032,0.999968,-0.003860,-0.005279,0.004538,-0.445138,-0.602933,0.522364,0.999903,0.009116,0.010523,-0.009035,0.999929,-0.007769,-0.010593,0.007673,0.999914
30879,2,0,-56.0000,8.845076,-0.352314,4.395858,-0.033836,-0.007168,0.070727,0.016520,0.020245,0.004213,-0.442883,-0.032428,-0.913615,0.088455,-0.003525,0.043949,1.000000,0.000083,0.000101,0.000021,0.999969,-0.003824,-0.005186,0.004612,-0.440973,-0.592267,0.530829,0.999904,0.009264,0.010337,-0.009185,0.999928,-0.007696,-0.010407,0.007600,0.999917
30880,2,0,-56.0000,8.853164,-0.315776,4.417352,-0.045945,0.030112,0.086212,0.011336,0.021807,0.005896,-0.450815,-0.039750,-0.910961,0.088537,-0.003158,0.044164,1.000000,0.000057,0.000109,0.000029,0.999969,-0.003808,-0.005087,0.004680,-0.439099,-0.580881,0.538571,0.999904,0.009399,0.010138,-0.009322,0.999927,-0.007663,-0.010209,0.007568,0.999919
30881,2,0,-56.0000,8.814182,-0.338122,4.387154,-0.035336,0.005281,0.038708,0.011681,0.019292,0.003100,-0.454682,-0.043877,-0.917485,0.088146,-0.003382,0.043863,1.000000,0.000058,0.000096,0.000016,0.999969,-0.003781,-0.004999,0.004755,-0.435995,-0.570830,0.547017,0.999905,0.009547,0.009963,-0.009471,0.999926,-0.007609,-0.010035,0.007514,0.999921
30882,2,0,-56.0000,8.869092,-0.259107,4.490492,-0.098278,0.090134,0.130887,0.012115,0.017940,0.006570,-0.453576,-0.037218,-0.922153,0.088695,-0.002591,0.044897,1.000000,0.000061,0.000090,0.000033,0.999969,-0.003767,-0.004919,0.004828,-0.434387,-0.561627,0.555410,0.999905,0.009693,0.009802,-0.009619,0.999925,-0.007581,-0.009875,0.007486,0.999923
30883,2,0,-56.0000,8.842428,-0.303389,4.312105,0.049704,0.035648,0.029624,-0.002197,0.029360,0.005625,-0.451482,-0.039580,-0.915002,0.088431,-0.003031,0.043108,1.000000,-0.000011,0.000147,0.000028,0.999970,-0.003778,-0.004783,0.004829,-0.435551,-0.546033,0.555442,0.999908,0.009694,0.009530,-0.009621,0.999925,-0.007601,-0.009603,0.007509,0.999926
30884,2,0,-56.0000,8.685724,-0.319523,4.324280,-0.028444,0.018590,-0.104849,0.003161,0.036565,0.005871,-0.457094,-0.042590,-0.911061,0.086865,-0.003193,0.043227,1.000000,0.000016,0.000183,0.000029,0.999970,-0.003776,-0.004611,0.004858,-0.435275,-0.526243,0.558704,0.999910,0.009751,0.009185,-0.009681,0.999924,-0.007597,-0.009258,0.007507,0.999929
30885,2,0,-56.0000,8.701249,-0.335892,4.317806,-0.014662,0.002116,-0.093234,0.005583,0.006074,0.007514,-0.450283,-0.041236,-0.919443,0.087014,-0.003357,0.043175,1.000000,0.000028,0.000030,0.000038,0.999970,-0.003783,-0.004592,0.004899,-0.436111,-0.524111,0.563380,0.999910,0.009832,0.009147,-0.009763,0.999923,-0.007611,-0.009221,0.007521,0.999929
30886,2,0,-56.0000,8.793091,-0.323682,4.404651,-0.050598,0.020338,0.027089,0.011356,0.006396,0.010769,-0.441298,-0.032726,-0.921263,0.087932,-0.003235,0.044044,1.000000,0.000057,0.000032,0.000054,0.999970,-0.003792,-0.004569,0.004980,-0.437204,-0.521357,0.572703,0.999909,0.009995,0.009099,-0.009926,0.999922,-0.007630,-0.009175,0.007539,0.999929
30887,2,0,-56.0000,8.793019,-0.324404,4.404742,-0.050754,0.020134,0.027088,0.000792,-0.004773,0.011739,-0.447674,-0.033543,-0.919124,0.087929,-0.003239,0.044050,1.000000,0.000004,-0.000024,0.000059,0.999969,-0.003834,-0.004597,0.005026,-0.441996,-0.524563,0.577932,0.999907,0.010086,0.009155,-0.010016,0.999920,-0.007714,-0.009232,0.007621,0.999928
30888,2,0,-56.0000,8.831316,-0.302967,4.436238,-0.061797,0.044527,0.074594,0.001572,-0.008643,0.012416,-0.446996,-0.039192,-0.918647,0.088311,-0.003025,0.044366,1.000000,0.000008,-0.000043,0.000062,0.999969,-0.003876,-0.004648,0.005069,-0.446895,-0.530384,0.582986,0.999905,0.010174,0.009257,-0.010102,0.999919,-0.007799,-0.009335,0.007705,0.999927
30889,2,0,-56.0000,8.835175,-0.338478,4.436735,-0.063077,0.010166,0.079502,-0.002969,-0.008658,0.013770,-0.453138,-0.039764,-0.916079,0.088350,-0.003378,0.044371,1.000000,-0.000015,-0.000043,0.000069,0.999968,-0.003936,-0.004697,0.005104,-0.453823,-0.535887,0.586987,0.999904,0.010244,0.009353,-0.010170,0.999917,-0.007920,-0.009433,0.007824,0.999925
30890,2,0,-56.0000,8.848380,-0.321716,4.426499,-0.048150,0.027858,0.086208,-0.005908,-0.005356,0.017403,-0.453227,-0.043420,-0.915760,0.088483,-0.003208,0.044267,1.000000,-0.000030,-0.000027,0.000087,0.999968,-0.004017,-0.004730,0.005125,-0.463078,-0.539673,0.589441,0.999903,0.010287,0.009419,-0.010211,0.999915,-0.008082,-0.009501,0.007985,0.999923
30891,2,0,-56.0000,8.835958,-0.325522,4.405268,-0.035416,0.024255,0.065808,-0.006046,-0.003062,0.016400,-0.451037,-0.041346,-0.916049,0.088359,-0.003247,0.044054,1.000000,-0.000030,-0.000015,0.000082,0.999967,-0.004092,-0.004754,0.005132,-0.471659,-0.542330,0.590288,0.999902,0.010302,0.009465,-0.010224,0.999914,-0.008232,-0.009549,0.008134,0.999921
30892,2,0,-56.0000,8.803565,-0.279096,4.391157,-0.035617,0.071067,0.028887,-0.008501,-0.004572,0.018242,-0.452211,-0.043330,-0.910526,0.088035,-0.002781,0.043914,1.000000,-0.000043,-0.000023,0.000091,0.999967,-0.004181,-0.004783,0.005143,-0.481979,-0.545647,0.591619,0.999901,0.010325,0.009523,-0.010245,0.999912,-0.008412,-0.009609,0.008313,0.999919
30893,2,0,-56.0000,8.807267,-0.315271,4.391873,-0.036964,0.036645,0.033794,-0.008155,-0.007090,0.015448,-0.452476,-0.038829,-0.925174,0.088071,-0.003144,0.043922,1.000000,-0.000041,-0.000035,0.000077,0.999966,-0.004257,-0.004827,0.005135,-0.490674,-0.550627,0.590846,0.999901,0.010312,0.009610,-0.010229,0.999911,-0.008563,-0.009698,0.008464,0.999917
30894,2,0,-56.0000,8.791423,-0.284986,4.369239,-0.023105,0.067225,0.008490,-0.013043,-0.004583,0.019595,-0.461028,-0.041476,-0.922753,0.087914,-0.002838,0.043695,1.000000,-0.000065,-0.000023,0.000098,0.999966,-0.004363,-0.004856,0.005129,-0.502843,-0.553919,0.590207,0.999900,0.010300,0.009668,-0.010216,0.999909,-0.008776,-0.009757,0.008676,0.999915
30895,2,0,-56.0000,8.820677,-0.301315,4.381059,-0.022282,0.054096,0.040505,-0.018547,-0.009485,0.018344,-0.443916,-0.042613,-0.921304,0.088205,-0.003001,0.043815,1.000000,-0.000093,-0.000047,0.000092,0.999965,-0.004477,-0.004911,0.005089,-0.515867,-0.560181,0.585678,0.999900,0.010221,0.009777,-0.010133,0.999908,-0.009003,-0.009868,0.008903,0.999912
30896,2,0,-56.0000,8.804234,-0.304023,4.418886,-0.064715,0.055519,0.042578,-0.017907,-0.011061,0.018017,-0.455611,-0.034234,-0.924406,0.088040,-0.003028,0.044194,1.000000,-0.000090,-0.000055,0.000090,0.999964,-0.004588,-0.004974,0.005058,-0.528666,-0.567258,0.582284,0.999899,0.010162,0.009900,-0.010071,0.999907,-0.009226,-0.009993,0.009126,0.999908
30897,2,0,-56.0000,8.795735,-0.342690,4.397930,-0.053001,0.017784,0.027081,-0.020179,-0.018321,0.015597,-0.446869,-0.031444,-0.912415,0.087954,-0.003416,0.043988,1.000000,-0.000101,-0.000092,0.000078,0.999964,-0.004696,-0.005070,0.005011,-0.541039,-0.578295,0.577007,0.999898,0.010070,0.010093,-0.009975,0.999906,-0.009442,-0.010187,0.009341,0.999904
30898,2,0,-56.0000,8.805337,-0.324973,4.446002,-0.093269,0.040474,0.056262,-0.022157,-0.024640,0.015644,-0.452925,-0.036617,-0.907974,0.088048,-0.003238,0.044471,1.000000,-0.000111,-0.000123,0.000078,0.999963,-0.004810,-0.005201,0.004959,-0.554127,-0.593247,0.571121,0.999897,0.009967,0.010354,-0.009867,0.999905,-0.009671,-0.010449,0.009568,0.999900
30899,2,0,-56.0000,8.797341,-0.363606,4.423995,-0.081612,0.002771,0.040763,-0.023765,-0.027948,0.013362,-0.452970,-0.038208,-0.921365,0.087967,-0.003625,0.044253,1.000000,-0.000119,-0.000140,0.000067,0.999962,-0.004919,-0.005349,0.004904,-0.566755,-0.610229,0.565029,0.999895,0.009861,0.010650,-0.009756,0.999903,-0.009891,-0.010747,0.009786,0.999894
30900,2,0,-56.0000,8.823799,-0.361914,4.462889,-0.107826,0.009223,0.081557,-0.026387,-0.032686,0.013734,-0.456886,-0.037770,-0.922116,0.088231,-0.003607,0.044644,1.000000,-0.000132,-0.000163,0.000069,0.999960,-0.005036,-0.005521,0.004830,-0.580185,-0.629877,0.556667,0.999892,0.009715,0.010993,-0.009604,0.999903,-0.010125,-0.011091,0.010019,0.999888
30901,2,0,-56.0000,8.825450,-0.348150,4.429744,-0.079905,0.023573,0.067873,-0.028016,-0.027008,0.017181,-0.451207,-0.034294,-0.917879,0.088249,-0.003468,0.044310,1.000000,-0.000140,-0.000135,0.000086,0.999959,-0.005171,-0.005663,0.004751,-0.595614,-0.646134,0.547850,0.999891,0.009561,0.011277,-0.009444,0.999901,-0.010395,-0.011375,0.010287,0.999882
30902,2,0,-56.0000,8.813501,-0.369009,4.437105,-0.095287,0.005414,0.061155,-0.030165,-0.021142,0.010900,-0.456100,-0.040058,-0.914850,0.088131,-0.003679,0.044381,1.000000,-0.000151,-0.000106,0.000055,0.999959,-0.005280,-0.005778,0.004652,-0.608181,-0.659314,0.536584,0.999890,0.009364,0.011507,-0.009242,0.999901,-0.010614,-0.011605,0.010506,0.999877
30903,2,0,-56.0000,8.814702,-0.355083,4.404843,-0.067372,0.019769,0.047473,-0.029066,-0.018544,0.014507,-0.459298,-0.034702,-0.913228,0.088143,-0.003538,0.044057,1.000000,-0.000145,-0.000093,0.000073,0.999958,-0.005403,-0.005879,0.004563,-0.622250,-0.670883,0.526529,0.999889,0.009189,0.011709,-0.009062,0.999900,-0.010859,-0.011807,0.010752,0.999872
30904,2,0,-57.0000,8.802735,-0.359636,4.382544,-0.054606,0.016196,0.027075,-0.026150,-0.012862,0.016601,-0.454818,-0.026471,-0.916321,0.088025,-0.003583,0.043832,1.000000,-0.000131,-0.000064,0.000083,0.999957,-0.005527,-0.005951,0.004493,-0.636461,-0.679097,0.518610,0.999889,0.009051,0.011852,-0.008919,0.999899,-0.011107,-0.011952,0.011000,0.999868
30905,2,0,-56.0000,8.761257,-0.366453,4.378525,-0.071085,0.010989,-0.011655,-0.028536,-0.012296,0.013648,-0.458749,-0.034150,-0.918708,0.087610,-0.003652,0.043791,1.000000,-0.000143,-0.000061,0.000068,0.999956,-0.005646,-0.006023,0.004422,-0.650076,-0.687321,0.510654,0.999888,0.008912,0.011996,-0.008776,0.999897,-0.011345,-0.012096,0.011238,0.999864
30906,2,0,-56.0000,8.783928,-0.314411,4.387373,-0.068065,0.066183,0.010564,-0.030996,-0.013800,0.015487,-0.453920,-0.041958,-0.917324,0.087836,-0.003131,0.043880,1.000000,-0.000155,-0.000069,0.000077,0.999955,-0.005776,-0.006100,0.004328,-0.664968,-0.696146,0.499997,0.999888,0.008726,0.012150,-0.008585,0.999896,-0.011605,-0.012250,0.011499,0.999859
30907,2,0,-56.0000,8.730420,-0.307135,4.331719,-0.043374,0.072163,-0.062238,-0.033995,-0.021543,0.018178,-0.457526,-0.033553,-0.921244,0.087300,-0.003056,0.043327,1.000000,-0.000170,-0.000108,0.000091,0.999954,-0.005927,-0.006216,0.004221,-0.682181,-0.709389,0.487919,0.999887,0.008515,0.012381,-0.008368,0.999894,-0.011905,-0.012481,0.011800,0.999852
30908,2,0,-56.0000,8.760677,-0.307830,4.311677,-0.014394,0.073626,-0.043903,-0.044117,-0.022066,0.012488,-0.458514,-0.046459,-0.912256,0.087602,-0.003063,0.043127,1.000000,-0.000221,-0.000110,0.000062,0.999953,-0.006075,-0.006335,0.004063,-0.699107,-0.723140,0.469975,0.999887,0.008202,0.012621,-0.008048,0.999893,-0.012200,-0.012720,0.012097,0.999846
30909,2,0,-56.0000,8.727227,-0.350310,4.248138,0.023250,0.029197,-0.100196,-0.026621,-0.025989,0.006907,-0.459288,-0.030913,-0.908853,0.087267,-0.003494,0.042493,1.000000,-0.000133,-0.000130,0.000035,0.999952,-0.006158,-0.006477,0.003957,-0.708692,-0.739417,0.458078,0.999885,0.007994,0.012905,-0.007835,0.999893,-0.012368,-0.013002,0.012265,0.999840
30910,2,0,-56.0000,8.719255,-0.388015,4.225745,0.034929,-0.008527,-0.115699,-0.015992,-0.033718,0.005519,-0.451266,-0.041191,-0.919766,0.087186,-0.003874,0.042272,1.000000,-0.000080,-0.000169,0.000028,0.999951,-0.006216,-0.006656,0.003911,-0.715294,-0.759923,0.452977,0.999881,0.007905,0.013263,-0.007740,0.999892,-0.012483,-0.013360,0.012379,0.999834
30911,2,0,-56.0000,8.838557,-0.373358,4.350115,-0.027087,0.016287,0.045405,-0.012632,-0.038371,0.005337,-0.456872,-0.030221,-0.914458,0.088377,-0.003728,0.043518,1.000000,-0.000063,-0.000192,0.000027,0.999949,-0.006266,-0.006858,0.003879,-0.721113,-0.783123,0.449452,0.999876,0.007844,0.013668,-0.007672,0.999891,-0.012584,-0.013765,0.012478,0.999827
30912,2,0,-56.0000,8.880832,-0.436233,4.470988,-0.123700,-0.037285,0.138821,-0.024446,-0.035294,0.007904,-0.458088,-0.040058,-0.918769,0.088801,-0.004353,0.044726,1.000000,-0.000122,-0.000176,0.000040,0.999948,-0.006353,-0.007045,0.003801,-0.731118,-0.804494,0.440688,0.999872,0.007691,0.014041,-0.007512,0.999890,-0.012759,-0.014137,0.012652,0.999820
30913,2,0,-56.0000,8.949744,-0.413724,4.482146,-0.105586,-0.011224,0.204670,-0.022497,-0.025530,0.013136,-0.450813,-0.031310,-0.915342,0.089492,-0.004126,0.044833,1.000000,-0.000112,-0.000128,0.000066,0.999946,-0.006457,-0.007181,0.003742,-0.743065,-0.820125,0.434113,0.999869,0.007576,0.014313,-0.007390,0.999889,-0.012967,-0.014410,0.012860,0.999813
30914,2,0,-56.0000,8.956383,-0.345248,4.499053,-0.116636,0.060197,0.215286,-0.024946,-0.011625,0.010152,-0.454389,-0.038516,-0.917634,0.089561,-0.003442,0.044996,1.000000,-0.000125,-0.000058,0.000051,0.999946,-0.006549,-0.007249,0.003662,-0.753600,-0.827888,0.425132,0.999868,0.007419,0.014449,-0.007229,0.999887,-0.013151,-0.014545,0.013045,0.999809
30915,2,0,-56.0000,8.951715,-0.368355,4.388637,-0.021566,0.032096,0.163661,-0.015352,-0.001935,0.011854,-0.457824,-0.030610,-0.903846,0.089517,-0.003675,0.043888,1.000000,-0.000077,-0.000010,0.000059,0.999945,-0.006626,-0.007265,0.003629,-0.762340,-0.829747,0.421378,0.999868,0.007354,0.014481,-0.007161,0.999886,-0.013304,-0.014577,0.013198,0.999807
30916,2,0,-56.0000,8.884823,-0.361506,4.313645,0.016149,0.034769,0.070472,-0.013570,-0.004372,0.009864,-0.460752,-0.037308,-0.913038,0.088847,-0.003608,0.043139,1.000000,-0.000068,-0.000022,0.000049,0.999945,-0.006690,-0.007296,0.003598,-0.769633,-0.833300,0.417968,0.999868,0.007294,0.014543,-0.007099,0.999885,-0.013431,-0.014640,0.013326,0.999804
30917,2,0,-56.0000,8.846186,-0.418139,4.341624,-0.029575,-0.019228,0.050289,-0.018152,-0.009893,0.010743,-0.462079,-0.028884,-0.920577,0.088460,-0.004173,0.043421,1.000000,-0.000091,-0.000049,0.000054,0.999944,-0.006769,-0.007357,0.003553,-0.778784,-0.840327,0.412824,0.999866,0.007204,0.014666,-0.007005,0.999883,-0.013590,-0.014762,0.013486,0.999800
30918,2,0,-56.0000,8.745016,-0.467763,4.234319,0.017918,-0.075297,-0.085531,-0.018268,-0.026452,0.009294,-0.462630,-0.032812,-0.922214,0.087445,-0.004670,0.042355,1.000000,-0.000091,-0.000132,0.000046,0.999942,-0.006847,-0.007499,0.003504,-0.787661,-0.856556,0.407388,0.999863,0.007109,0.014949,-0.006904,0.999882,-0.013745,-0.015045,0.013640,0.999794
30919,2,0,-56.0000,8.775645,-0.483287,4.243101,0.018730,-0.088388,-0.053525,-0.002984,-0.051883,0.012335,-0.458872,-0.034578,-0.916729,0.087746,-0.004827,0.042454,1.000000,-0.000015,-0.000259,0.000062,0.999940,-0.006912,-0.007767,0.003545,-0.795298,-0.887208,0.412409,0.999854,0.007197,0.015484,-0.006982,0.999879,-0.013878,-0.015582,0.013768,0.999784
30920,2,0,-56.0000,8.857643,-0.491527,4.333633,-0.032455,-0.088206,0.060052,-0.017603,-0.056752,0.013798,-0.455752,-0.033523,-0.916669,0.088564,-0.004905,0.043362,1.000000,-0.000088,-0.000284,0.000069,0.999937,-0.007016,-0.008058,0.003514,-0.807274,-0.920581,0.409203,0.999845,0.007141,0.016066,-0.006915,0.999877,-0.014087,-0.016165,0.013974,0.999772
30921,2,0,-56.0000,8.918134,-0.505267,4.323101,-0.002414,-0.099640,0.110400,-0.012043,-0.046350,0.015535,-0.460141,-0.039680,-0.918001,0.089172,-0.005043,0.043252,1.000000,-0.000060,-0.000232,0.000078,0.999934,-0.007113,-0.008296,0.003511,-0.818481,-0.947822,0.409146,0.999838,0.007140,0.016542,-0.006904,0.999874,-0.014283,-0.016642,0.014166,0.999761
30922,2,0,-56.0000,8.870618,-0.459368,4.345472,-0.044814,-0.051167,0.075558,-0.017234,-0.025924,0.017694,-0.461974,-0.034807,-0.922273,0.088701,-0.004582,0.043467,1.000000,-0.000086,-0.000130,0.000088,0.999932,-0.007225,-0.008433,0.003485,-0.831392,-0.963421,0.406408,0.999833,0.007092,0.016814,-0.006848,0.999871,-0.014508,-0.016915,0.014390,0.999753
30923,2,0,-56.0000,8.816998,-0.451030,4.289833,-0.020083,-0.045160,0.002765,-0.010017,-0.015676,0.016450,-0.454973,-0.042117,-0.907483,0.088167,-0.004501,0.042905,1.000000,-0.000050,-0.000078,0.000082,0.999931,-0.007312,-0.008518,0.003478,-0.841436,-0.973139,0.405771,0.999831,0.007081,0.016984,-0.006832,0.999869,-0.014683,-0.017085,0.014565,0.999748
30924,2,0,-56.0000,8.688350,-0.431110,4.279313,-0.067807,-0.026283,-0.118333,-0.002823,-0.020830,0.020012,-0.453397,-0.034587,-0.915126,0.086879,-0.004302,0.042802,1.000000,-0.000014,-0.000104,0.000100,0.999929,-0.007402,-0.008627,0.003521,-0.851769,-0.985629,0.410877,0.999826,0.007170,0.017202,-0.006915,0.999866,-0.014863,-0.017306,0.014742,0.999742
30925,2,0,-56.0000,8.664428,-0.420029,4.204721,-0.013844,-0.018588,-0.172777,-0.001049,-0.042105,0.017547,-0.460814,-0.035413,-0.924230,0.086636,-0.004192,0.042065,1.000000,-0.000005,-0.000211,0.000088,0.999927,-0.007480,-0.008842,0.003558,-0.860890,-1.010202,0.415296,0.999818,0.007247,0.017630,-0.006983,0.999863,-0.015022,-0.017737,0.014897,0.999732
30926,2,0,-56.0000,8.668887,-0.349231,4.278406,-0.080113,0.057797,-0.139707,0.009121,-0.067317,0.012193,-0.457268,-0.033772,-0.910973,0.086675,-0.003489,0.042813,1.000000,0.000046,-0.000337,0.000061,0.999923,-0.007520,-0.009186,0.003645,-0.865687,-1.049474,0.425626,0.999805,0.007427,0.018316,-0.007151,0.999860,-0.015106,-0.018425,0.014972,0.999718
30927,2,0,-56.0000,8.769315,-0.306802,4.236936,-0.004640,0.100133,-0.069147,0.008593,-0.086851,0.013039,-0.452826,-0.034697,-0.909119,0.087675,-0.003064,0.042407,1.000000,0.000043,-0.000434,0.000065,0.999918,-0.007570,-0.009626,0.003732,-0.871675,-1.099749,0.436039,0.999787,0.007609,0.019193,-0.007317,0.999858,-0.015210,-0.019306,0.015067,0.999700
30928,2,0,-56.0000,8.905692,-0.347116,4.208894,0.069683,0.061228,0.043175,0.004346,-0.079462,0.006307,-0.462260,-0.028904,-0.912820,0.089040,-0.003469,0.042124,1.000000,0.000022,-0.000397,0.000032,0.999914,-0.007597,-0.010032,0.003787,-0.875032,-1.146228,0.442714,0.999770,0.007725,0.020004,-0.007420,0.999856,-0.015269,-0.020119,0.015117,0.999683
30929,2,0,-56.0000,8.895619,-0.382460,4.242365,0.026185,0.028486,0.050095,-0.001687,-0.066202,0.006849,-0.464117,-0.035936,-0.923102,0.088942,-0.003821,0.042453,1.000000,-0.000008,-0.000331,0.000034,0.999910,-0.007637,-0.010371,0.003817,-0.879854,-1.185019,0.446563,0.999756,0.007792,0.020681,-0.007475,0.999854,-0.015352,-0.020798,0.015194,0.999668
30930,2,0,-56.0000,8.943827,-0.380383,4.179719,0.097359,0.028317,0.066407,-0.008840,-0.055528,0.003786,-0.461191,-0.037109,-0.915553,0.089427,-0.003800,0.041822,1.000000,-0.000044,-0.000278,0.000019,0.999906,-0.007676,-0.010659,0.003803,-0.884438,-1.218017,0.445267,0.999744,0.007770,0.021257,-0.007442,0.999853,-0.015432,-0.021374,0.015270,0.999655
30931,2,0,-56.0000,8.974965,-0.395235,4.187311,0.098204,0.015155,0.098413,-0.009688,-0.043858,0.002628,-0.466326,-0.033693,-0.908294,0.089741,-0.003949,0.041893,1.000000,-0.000048,-0.000219,0.000013,0.999904,-0.007708,-0.010887,0.003772,-0.888158,-1.244245,0.441874,0.999734,0.007710,0.021714,-0.007375,0.999853,-0.015497,-0.021831,0.015333,0.999644
30932,2,0,-56.0000,8.989476,-0.377768,4.174216,0.113115,0.032853,0.105155,-0.008329,-0.032543,0.008207,-0.466346,-0.035931,-0.909653,0.089888,-0.003772,0.041757,1.000000,-0.000042,-0.000163,0.000041,0.999902,-0.007760,-0.011059,0.003766,-0.894165,-1.263930,0.441418,0.999727,0.007702,0.022058,-0.007359,0.999851,-0.015602,-0.022175,0.015435,0.999635
30933,2,0,-56.0000,9.006934,-0.378425,4.132820,0.155052,0.030985,0.103121,-0.014658,-0.020233,0.006298,-0.464276,-0.032306,-0.907144,0.090065,-0.003778,0.041338,1.000000,-0.000073,-0.000101,0.000031,0.999900,-0.007814,-0.011173,0.003719,-0.900323,-1.276931,0.436294,0.999723,0.007613,0.022285,-0.007264,0.999850,-0.015709,-0.022401,0.015543,0.999628
30934,2,0,-56.0000,8.981959,-0.399891,4.119944,0.152692,0.009509,0.075995,-0.008547,-0.019013,0.011990,-0.463350,-0.026313,-0.918564,0.089816,-0.003992,0.041208,1.000000,-0.000043,-0.000095,0.000060,0.999898,-0.007880,-0.011276,0.003719,-0.907905,-1.288736,0.436371,0.999718,0.007614,0.022491,-0.007259,0.999848,-0.015841,-0.022608,0.015674,0.999622
30935,2,0,-56.0000,8.982601,-0.400999,4.118437,0.152467,0.009318,0.075998,-0.006663,-0.013868,0.005697,-0.468225,-0.040059,-0.912259,0.089823,-0.004006,0.041191,1.000000,-0.000033,-0.000069,0.000028,0.999897,-0.007913,-0.011355,0.003721,-0.911807,-1.297804,0.436709,0.999714,0.007620,0.022649,-0.007261,0.999847,-0.015909,-0.022767,0.015740,0.999617
30936,2,0,-56.0000,8.970308,-0.403794,4.096486,0.165249,0.005771,0.055612,-0.005404,-0.013578,0.010298,-0.460339,-0.029187,-0.919270,0.089701,-0.004032,0.040971,1.000000,-0.000027,-0.000068,0.000051,0.999896,-0.007963,-0.011432,0.003729,-0.917566,-1.306544,0.437823,0.999711,0.007639,0.022802,-0.007275,0.999845,-0.016010,-0.022920,0.015839,0.999612
30937,2,0,-56.0000,8.915739,-0.443924,4.132878,0.105563,-0.032011,0.023774,-0.007488,-0.012074,0.009829,-0.463976,-0.031873,-0.917425,0.089155,-0.004433,0.041334,1.000000,-0.000037,-0.000060,0.000049,0.999895,-0.008015,-0.011500,0.003722,-0.923509,-1.314382,0.437098,0.999708,0.007627,0.022938,-0.007258,0.999844,-0.016113,-0.023058,0.015942,0.999607
30938,2,0,-56.0000,8.954750,-0.423177,4.163596,0.094449,-0.007675,0.071298,-0.005221,-0.010356,0.011777,-0.467374,-0.032520,-0.912142,0.089546,-0.004225,0.041641,1.000000,-0.000026,-0.000052,0.000059,0.999894,-0.008070,-0.011560,0.003734,-0.929884,-1.321220,0.438608,0.999705,0.007653,0.023058,-0.007280,0.999842,-0.016225,-0.023178,0.016052,0.999602
30939,2,0,-56.0000,8.954908,-0.457557,4.223325,0.037920,-0.037116,0.098588,-0.007808,-0.009566,0.012634,-0.461686,-0.032559,-0.911195,0.089547,-0.004568,0.042238,1.000000,-0.000039,-0.000048,0.000063,0.999892,-0.008135,-0.011616,0.003736,-0.937371,-1.327589,0.439048,0.999702,0.007661,0.023169,-0.007283,0.999840,-0.016355,-0.023290,0.016181,0.999598
30940,2,0,-56.0000,8.968018,-0.440687,4.213166,0.052828,-0.019418,0.105334,-0.003531,-0.001556,0.014555,-0.465736,-0.038119,-0.916806,0.089680,-0.004400,0.042132,1.000000,-0.000018,-0.000008,0.000073,0.999892,-0.008197,-0.011631,0.003760,-0.944483,-1.329275,0.441918,0.999701,0.007711,0.023198,-0.007329,0.999837,-0.016479,-0.023321,0.016304,0.999595
30941,2,0,-56.0000,8.935540,-0.410156,4.230329,0.024501,0.012810,0.082110,-0.002585,-0.002199,0.016686,-0.463156,-0.031112,-0.914830,0.089355,-0.004094,0.042304,1.000000,-0.000013,-0.000011,0.000083,0.999891,-0.008265,-0.011648,0.003786,-0.952389,-1.331157,0.444902,0.999700,0.007763,0.023231,-0.007378,0.999835,-0.016617,-0.023356,0.016441,0.999592
30942,2,0,-56.0000,8.964443,-0.426139,4.242540,0.025313,-0.000342,0.114111,-0.009280,0.007109,0.017100,-0.466758,-0.028218,-0.923405,0.089646,-0.004252,0.042422,1.000000,-0.000046,0.000036,0.000086,0.999890,-0.008349,-0.011619,0.003788,-0.961961,-1.327838,0.445271,0.999701,0.007769,0.023173,-0.007381,0.999832,-0.016784,-0.023300,0.016608,0.999591
30943,2,0,-56.0000,8.954591,-0.447677,4.193193,0.065195,-0.023412,0.084948,-0.007959,0.009469,0.016917,-0.466331,-0.033340,-0.913219,0.089548,-0.004468,0.041928,1.000000,-0.000040,0.000047,0.000085,0.999890,-0.008429,-0.011578,0.003802,-0.971181,-1.323016,0.446880,0.999703,0.007797,0.023089,-0.007407,0.999829,-0.016945,-0.023217,0.016769,0.999590
30944,2,0,-57.0000,8.921587,-0.417822,4.211432,0.036854,0.008833,0.061725,-0.010424,0.011412,0.024037,-0.467267,-0.034499,-0.912744,0.089219,-0.004165,0.042109,1.000000,-0.000052,0.000057,0.000120,0.999890,-0.008545,-0.011526,0.003813,-0.984477,-1.316974,0.448345,0.999705,0.007823,0.022984,-0.007429,0.999825,-0.017177,-0.023114,0.017001,0.999588
30945,2,0,-56.0000,8.937179,-0.436491,4.203859,0.050664,-0.007643,0.073338,-0.014590,0.014425,0.023099,-0.460305,-0.033166,-0.912717,0.089375,-0.004352,0.042032,1.000000,-0.000073,0.000072,0.000115,0.999890,-0.008665,-0.011460,0.003798,-0.998171,-1.309381,0.446633,0.999709,0.007793,0.022851,-0.007396,0.999821,-0.017416,-0.022983,0.017242,0.999587
30946,2,0,-56.0000,8.949230,-0.437435,4.225919,0.037419,-0.004560,0.093726,-0.015856,0.017578,0.023773,-0.464530,-0.034036,-0.917144,0.089497,-0.004360,0.042252,1.000000,-0.000079,0.000088,0.000119,0.999889,-0.008791,-0.011377,0.003784,-1.012480,-1.299874,0.445091,0.999712,0.007766,0.022685,-0.007366,0.999817,-0.017666,-0.022818,0.017493,0.999587
30947,2,0,-56.0000,8.957806,-0.404362,4.247448,0.025275,0.032677,0.109253,-0.022930,0.023893,0.026498,-0.461350,-0.033941,-0.916293,0.089584,-0.004027,0.042464,1.000000,-0.000115,0.000119,0.000132,0.999890,-0.008942,-0.011261,0.003736,-1.029689,-1.286585,0.439776,0.999718,0.007674,0.022453,-0.007271,0.999812,-0.017966,-0.022587,0.017798,0.999586
30948,2,0,-57.0000,8.943710,-0.409539,4.229115,0.038062,0.029136,0.088867,-0.022057,0.031053,0.028133,-0.470598,-0.030829,-0.919267,0.089444,-0.004078,0.042278,1.000000,-0.000110,0.000155,0.000141,0.999890,-0.009097,-0.011110,0.003702,-1.047355,-1.269262,0.435832,0.999726,0.007605,0.022151,-0.007200,0.999807,-0.018274,-0.022286,0.018110,0.999588
30949,2,0,-57.0000,8.922582,-0.395870,4.299892,-0.031446,0.050071,0.099667,-0.037951,0.025941,0.025027,-0.466388,-0.029267,-0.925235,0.089232,-0.003939,0.042988,1.000000,-0.000190,0.000130,0.000125,0.999890,-0.009275,-0.010987,0.003585,-1.067504,-1.255126,0.422594,0.999733,0.007374,0.021904,-0.006966,0.999802,-0.018626,-0.022037,0.018468,0.999587
30950,2,0,-57.0000,8.953932,-0.415638,4.254522,0.024587,0.031983,0.109257,-0.051209,0.028990,0.026831,-0.460400,-0.027014,-0.911574,0.089546,-0.004133,0.042533,1.000000,-0.000256,0.000145,0.000134,0.999890,-0.009489,-0.010848,0.003417,-1.091799,-1.239317,0.403459,0.999741,0.007040,0.021628,-0.006628,0.999797,-0.019050,-0.021758,0.018902,0.999585
30951,2,0,-56.0000,8.868382,-0.428435,4.252272,-0.007962,0.021775,0.031755,-0.056335,0.036103,0.029032,-0.462467,-0.033156,-0.907788,0.088692,-0.004260,0.042508,1.000000,-0.000282,0.000181,0.000145,0.999891,-0.009724,-0.010672,0.003235,-1.118413,-1.219299,0.382686,0.999751,0.006678,0.021279,-0.006262,0.999790,-0.019514,-0.021405,0.019376,0.999583
30952,2,0,-56.0000,8.850739,-0.434120,4.293233,-0.050397,0.023164,0.033775,-0.063722,0.014884,0.029258,-0.462957,-0.020996,-0.920132,0.088511,-0.004315,0.042927,1.000000,-0.000319,0.000074,0.000146,0.999889,-0.009980,-0.010604,0.003019,-1.147525,-1.211598,0.358152,0.999757,0.006249,0.021145,-0.005826,0.999783,-0.020022,-0.021265,0.019894,0.999576
30953,2,0,-57.0000,8.940813,-0.483480,4.270360,0.007711,-0.020755,0.107362,-0.057672,0.007147,0.029174,-0.462752,-0.027148,-0.921057,0.089410,-0.004809,0.042702,1.000000,-0.000288,0.000036,0.000146,0.999888,-0.010226,-0.010573,0.002838,-1.175485,-1.208256,0.337629,0.999760,0.005891,0.021086,-0.005459,0.999775,-0.020510,-0.021203,0.020390,0.999567
30954,2,0,-57.0000,8.920640,-0.454529,4.309061,-0.033650,0.014797,0.104524,-0.051933,0.011788,0.026638,-0.460025,-0.027481,-0.918881,0.089210,-0.004522,0.043087,1.000000,-0.000260,0.000059,0.000133,0.999887,-0.010446,-0.010521,0.002669,-1.200419,-1.202329,0.318521,0.999764,0.005558,0.020983,-0.005118,0.999768,-0.020945,-0.021095,0.020833,0.999560
30955,2,0,-57.0000,8.923232,-0.493325,4.310634,-0.034921,-0.019581,0.109378,-0.046761,0.010202,0.024925,-0.462930,-0.030714,-0.917682,0.089235,-0.004912,0.043103,1.000000,-0.000234,0.000051,0.000125,0.999885,-0.010647,-0.010474,0.002525,-1.223355,-1.197137,0.302174,0.999768,0.005273,0.020892,-0.004827,0.999761,-0.021345,-0.021000,0.021239,0.999554
30956,2,0,-57.0000,8.909507,-0.515680,4.321113,-0.050281,-0.037741,0.102620,-0.041648,0.016416,0.022734,-0.462539,-0.026532,-0.907204,0.089099,-0.005138,0.043205,1.000000,-0.000208,0.000082,0.000114,0.999884,-0.010825,-0.010399,0.002393,-1.243579,-1.188626,0.287180,0.999772,0.005011,0.020744,-0.004561,0.999754,-0.021698,-0.020848,0.021599,0.999549
30957,2,0,-57.0000,8.911917,-0.553427,4.323061,-0.051592,-0.072133,0.107471,-0.032234,0.013878,0.017185,-0.464603,-0.029192,-0.919023,0.089123,-0.005520,0.043225,1.000000,-0.000161,0.000069,0.000086,0.999884,-0.010959,-0.010338,0.002292,-1.258723,-1.181740,0.275612,0.999776,0.004809,0.020624,-0.004356,0.999749,-0.021962,-0.020724,0.021868,0.999546
30958,2,0,-57.0000,8.911238,-0.556501,4.324066,-0.051821,-0.072364,0.107468,-0.030354,0.012582,0.021444,-0.461489,-0.019082,-0.909926,0.089116,-0.005549,0.043236,1.000000,-0.000152,0.000063,0.000107,0.999883,-0.011107,-0.010282,0.002208,-1.275599,-1.175353,0.266161,0.999779,0.004644,0.020512,-0.004188,0.999744,-0.022257,-0.020610,0.022166,0.999542
30959,2,0,-57.0000,8.927061,-0.558839,4.286066,-0.009844,-0.074171,0.105452,-0.021766,0.011829,0.020031,-0.453837,-0.033453,-0.928043,0.089274,-0.005575,0.042856,1.000000,-0.000109,0.000059,0.000100,0.999882,-0.011232,-0.010230,0.002170,-1.289839,-1.169381,0.261873,0.999781,0.004570,0.020408,-0.004110,0.999738,-0.022505,-0.020506,0.022417,0.999538
30960,2,0,-57.0000,8.913564,-0.563118,4.266479,0.002952,-0.077704,0.085066,-0.019114,0.016544,0.019683,-0.458069,-0.029580,-0.920148,0.089140,-0.005618,0.042658,1.000000,-0.000096,0.000083,0.000098,0.999882,-0.011346,-0.010154,0.002133,-1.302887,-1.160677,0.257593,0.999785,0.004495,0.020256,-0.004034,0.999733,-0.022733,-0.020353,0.022646,0.999536
30961,2,0,-58.0000,8.925588,-0.564011,4.288456,-0.010223,-0.074648,0.105448,-0.016402,0.013454,0.019810,-0.460099,-0.033041,-0.916654,0.089259,-0.005628,0.042879,1.000000,-0.000082,0.000067,0.000099,0.999881,-0.011455,-0.010089,0.002099,-1.315328,-1.153248,0.253819,0.999788,0.004429,0.020127,-0.003967,0.999729,-0.022950,-0.020223,0.022865,0.999534
30962,2,0,-58.0000,8.899330,-0.569818,4.248114,0.015598,-0.081481,0.064678,-0.017545,0.014320,0.021470,-0.462588,-0.029456,-0.906905,0.088997,-0.005685,0.042475,1.000000,-0.000088,0.000072,0.000107,0.999881,-0.011575,-0.010023,0.002073,-1.328978,-1.145725,0.250862,0.999790,0.004377,0.019995,-0.003913,0.999723,-0.023188,-0.020091,0.023105,0.999531
30963,2,0,-58.0000,8.898579,-0.572567,4.249316,0.015359,-0.081728,0.064676,-0.020138,0.015124,0.022321,-0.464353,-0.024761,-0.917507,0.088990,-0.005711,0.042487,1.000000,-0.000101,0.000076,0.000112,0.999880,-0.011703,-0.009953,0.002028,-1.343585,-1.137800,0.245738,0.999794,0.004288,0.019857,-0.003822,0.999718,-0.023443,-0.019952,0.023362,0.999528
30964,2,0,-58.0000,8.881331,-0.576210,4.289417,-0.027076,-0.080349,0.066684,-0.019710,0.013761,0.025771,-0.456246,-0.028406,-0.918335,0.088817,-0.005746,0.042889,1.000000,-0.000099,0.000069,0.000129,0.999879,-0.011847,-0.009889,0.002001,-1.360008,-1.130447,0.242797,0.999796,0.004237,0.019729,-0.003768,0.999711,-0.023730,-0.019824,0.023651,0.999524
30965,2,0,-59.0000,8.868160,-0.564517,4.239492,0.013895,-0.069235,0.032679,-0.025285,0.012361,0.029775,-0.461050,-0.026770,-0.912887,0.088685,-0.005627,0.042390,1.000000,-0.000126,0.000062,0.000149,0.999877,-0.012021,-0.009830,0.001961,-1.379998,-1.123689,0.238234,0.999799,0.004157,0.019611,-0.003684,0.999703,-0.024079,-0.019705,0.024001,0.999518
30966,2,0,-59.0000,8.880280,-0.566678,4.261088,0.000642,-0.066165,0.053061,-0.026618,0.010010,0.029944,-0.463054,-0.025249,-0.914881,0.088806,-0.005648,0.042607,1.000000,-0.000133,0.000050,0.000150,0.999876,-0.012200,-0.009784,0.001913,-1.400412,-1.118395,0.232945,0.999801,0.004065,0.019518,-0.003587,0.999695,-0.024435,-0.019612,0.024360,0.999511
30967,2,0,-59.0000,8.867039,-0.572264,4.240797,0.013432,-0.069680,0.032677,-0.028852,0.003938,0.033734,-0.460658,-0.031291,-0.916370,0.088672,-0.005702,0.042407,1.000000,-0.000144,0.000020,0.000169,0.999874,-0.012403,-0.009767,0.001867,-1.423597,-1.116504,0.227808,0.999802,0.003975,0.019485,-0.003491,0.999685,-0.024839,-0.019578,0.024766,0.999502
30968,2,0,-60.0000,8.879819,-0.558363,4.231430,0.028330,-0.051978,0.039442,-0.033289,0.001678,0.036074,-0.456820,-0.033558,-0.911200,0.088800,-0.005561,0.042314,1.000000,-0.000166,0.000008,0.000180,0.999871,-0.012626,-0.009761,0.001805,-1.449095,-1.115805,0.220939,0.999803,0.003855,0.019473,-0.003362,0.999675,-0.025284,-0.019564,0.025214,0.999491
30969,2,0,-60.0000,8.904766,-0.576827,4.302980,-0.026099,-0.060279,0.093821,-0.036278,-0.000518,0.039221,-0.459804,-0.028232,-0.910233,0.089049,-0.005743,0.043031,1.000000,-0.000181,-0.000003,0.000196,0.999868,-0.012869,-0.009764,0.001722,-1.476834,-1.116221,0.211703,0.999803,0.003694,0.019481,-0.003192,0.999663,-0.025768,-0.019569,0.025701,0.999478
30970,2,0,-60.0000,8.920960,-0.581284,4.264020,0.015882,-0.062115,0.091815,-0.035275,0.004348,0.041859,-0.462837,-0.027795,-0.909243,0.089212,-0.005787,0.042639,1.000000,-0.000176,0.000022,0.000209,0.999865,-0.013121,-0.009742,0.001663,-1.505722,-1.113789,0.205227,0.999805,0.003581,0.019438,-0.003070,0.999650,-0.026272,-0.019525,0.026207,0.999466
30971,2,0,-60.0000,8.878445,-0.590239,4.261714,-0.000519,-0.067341,0.053053,-0.035400,0.006650,0.040876,-0.470587,-0.018983,-0.915440,0.088787,-0.005877,0.042615,1.000000,-0.000177,0.000033,0.000204,0.999862,-0.013369,-0.009711,0.001595,-1.534009,-1.110217,0.197627,0.999806,0.003449,0.019376,-0.002929,0.999637,-0.026765,-0.019461,0.026703,0.999454
30972,2,0,-61.0000,8.891084,-0.577364,4.252573,0.014378,-0.049640,0.059821,-0.033105,0.003980,0.048579,-0.459926,-0.025562,-0.920027,0.088913,-0.005745,0.042525,1.000000,-0.000166,0.000020,0.000243,0.999859,-0.013647,-0.009688,0.001561,-1.565830,-1.107690,0.194000,0.999807,0.003385,0.019332,-0.002856,0.999623,-0.027320,-0.019417,0.027260,0.999440
30973,2,0,-61.0000,8.855292,-0.622111,4.191201,0.052154,-0.093897,0.003516,-0.036335,0.006377,0.049767,-0.455963,-0.025238,-0.918205,0.088556,-0.006191,0.041910,1.000000,-0.000182,0.000032,0.000249,0.999855,-0.013938,-0.009655,0.001519,-1.599128,-1.103907,0.189474,0.999809,0.003306,0.019266,-0.002768,0.999607,-0.027901,-0.019350,0.027843,0.999425
30974,2,0,-62.0000,8.844746,-0.575171,4.279822,-0.029328,-0.035526,0.029827,-0.036726,-0.000050,0.046775,-0.465805,-0.023991,-0.910201,0.088449,-0.005723,0.042799,1.000000,-0.000184,-0.000000,0.000234,0.999851,-0.014217,-0.009654,0.001465,-1.631051,-1.103815,0.183659,0.999809,0.003205,0.019264,-0.002656,0.999591,-0.028458,-0.019347,0.028401,0.999409
30975,2,0,-62.0000,8.838088,-0.634513,4.229815,0.009491,-0.092748,0.005513,-0.042624,-0.002354,0.048296,-0.459708,-0.015740,-0.918221,0.088382,-0.006315,0.042301,1.000000,-0.000213,-0.000012,0.000241,0.999847,-0.014517,-0.009665,0.001387,-1.665312,-1.105087,0.174993,0.999809,0.003054,0.019286,-0.002492,0.999575,-0.029056,-0.019367,0.029002,0.999392
30976,2,0,-63.0000,8.850897,-0.639079,4.249576,-0.003766,-0.089683,0.025892,-0.034906,-0.014663,0.050962,-0.454046,-0.026854,-0.910964,0.088507,-0.006361,0.042503,1.000000,-0.000175,-0.000073,0.000255,0.999842,-0.014814,-0.009735,0.001354,-1.699402,-1.113143,0.171663,0.999807,0.002996,0.019427,-0.002419,0.999557,-0.029650,-0.019507,0.029597,0.999372
30977,2,0,-64.0000,8.845106,-0.681321,4.168243,0.063242,-0.132248,-0.012032,-0.024350,-0.014676,0.049047,-0.464010,-0.029212,-0.909742,0.088450,-0.006786,0.041690,1.000000,-0.000122,-0.000073,0.000245,0.999837,-0.015081,-0.009804,0.001367,-1.729971,-1.120979,0.173572,0.999804,0.003029,0.019564,-0.002437,0.999541,-0.030183,-0.019646,0.030130,0.999353
30978,2,0,-65.0000,8.816636,-0.671524,4.154625,0.061996,-0.119526,-0.044024,-0.007863,-0.020193,0.046063,-0.455600,-0.014332,-0.921126,0.088164,-0.006693,0.041555,1.000000,-0.000039,-0.000101,0.000230,0.999833,-0.015298,-0.009902,0.001445,-1.754975,-1.131985,0.182987,0.999800,0.003193,0.019756,-0.002587,0.999528,-0.030619,-0.019844,0.030562,0.999336
30979,2,0,-65.0000,8.894416,-0.650487,4.246819,0.011736,-0.085361,0.064651,-0.010739,-0.028103,0.044895,-0.462410,-0.027103,-0.918767,0.088940,-0.006483,0.042481,1.000000,-0.000054,-0.000141,0.000224,0.999828,-0.015519,-0.010039,0.001509,-1.780394,-1.147544,0.190829,0.999794,0.003330,0.020027,-0.002707,0.999514,-0.031063,-0.020121,0.031002,0.999317
30980,2,0,-66.0000,8.981765,-0.699401,4.280335,0.014573,-0.124438,0.160619,-0.015425,-0.022328,0.050561,-0.459234,-0.029371,-0.914903,0.089815,-0.006968,0.042814,1.000000,-0.000077,-0.000112,0.000253,0.999823,-0.015773,-0.010146,0.001564,-1.809670,-1.159689,0.197622,0.999789,0.003448,0.020239,-0.002808,0.999498,-0.031573,-0.020338,0.031509,0.999297
30981,2,0,-66.0000,8.981878,-0.721443,4.308515,-0.013805,-0.139347,0.174219,-0.017621,-0.018500,0.049116,-0.465921,-0.023637,-0.915343,0.089817,-0.007189,0.043094,1.000000,-0.000088,-0.000092,0.000246,0.999818,-0.016024,-0.010234,0.001589,-1.838415,-1.169695,0.200870,0.999785,0.003505,0.020414,-0.002849,0.999481,-0.032074,-0.020515,0.032009,0.999277
30982,2,0,-67.0000,8.966504,-0.693597,4.285771,0.000068,-0.108697,0.149003,-0.016202,-0.010633,0.049468,-0.460596,-0.018102,-0.916949,0.089664,-0.006910,0.042863,1.000000,-0.000081,-0.000053,0.000247,0.999813,-0.016272,-0.010283,0.001635,-1.866951,-1.175214,0.206594,0.999783,0.003605,0.020510,-0.002936,0.999465,-0.032572,-0.020616,0.032505,0.999259
30983,2,0,-68.0000,8.925476,-0.668354,4.221751,0.040006,-0.084619,0.083031,-0.010913,-0.014548,0.048734,-0.462340,-0.016600,-0.910316,0.089253,-0.006659,0.042224,1.000000,-0.000055,-0.000073,0.000244,0.999809,-0.016507,-0.010352,0.001702,-1.893941,-1.182941,0.214650,0.999780,0.003746,0.020645,-0.003062,0.999449,-0.033042,-0.020757,0.032972,0.999241
30984,2,0,-68.0000,8.936175,-0.620260,4.210467,0.055965,-0.032746,0.084978,-0.010197,-0.014042,0.043625,-0.464355,-0.022429,-0.921612,0.089360,-0.006181,0.042111,1.000000,-0.000051,-0.000070,0.000218,0.999804,-0.016717,-0.010420,0.001764,-1.918083,-1.190555,0.222061,0.999777,0.003875,0.020778,-0.003178,0.999435,-0.033463,-0.020896,0.033390,0.999224
30985,2,0,-69.0000,8.888204,-0.664472,4.126478,0.106814,-0.080287,0.008294,-0.013195,-0.019654,0.041482,-0.461055,-0.014616,-0.915621,0.088879,-0.006624,0.041274,1.000000,-0.000066,-0.000098,0.000207,0.999800,-0.016925,-0.010517,0.001806,-1.942083,-1.201541,0.227374,0.999772,0.003968,0.020969,-0.003256,0.999421,-0.033882,-0.021092,0.033806,0.999206
30986,2,0,-70.0000,8.794853,-0.711154,4.098851,0.086291,-0.127923,-0.084792,-0.009652,-0.032354,0.037917,-0.462950,-0.011130,-0.917124,0.087943,-0.007093,0.041003,1.000000,-0.000048,-0.000162,0.000190,0.999795,-0.017113,-0.010678,0.001861,-1.963735,-1.219845,0.234248,0.999765,0.004087,0.021289,-0.003356,0.999407,-0.034259,-0.021416,0.034180,0.999186
30987,2,0,-70.0000,8.838532,-0.639758,4.236407,-0.019188,-0.041743,0.009429,-0.005368,-0.056728,0.035426,-0.460865,-0.023742,-0.909148,0.088374,-0.006381,0.042389,1.000000,-0.000027,-0.000284,0.000177,0.999789,-0.017289,-0.010961,0.001946,-1.984061,-1.252036,0.244763,0.999752,0.004271,0.021850,-0.003513,0.999395,-0.034613,-0.021985,0.034528,0.999162
30988,2,0,-71.0000,8.930461,-0.705501,4.237186,0.010729,-0.100361,0.096623,-0.012828,-0.061138,0.040899,-0.456526,-0.025283,-0.920930,0.089293,-0.007034,0.042400,1.000000,-0.000064,-0.000306,0.000204,0.999781,-0.017505,-0.011265,0.002000,-2.008967,-1.286696,0.251825,0.999738,0.004394,0.022455,-0.003605,0.999379,-0.035047,-0.022595,0.034957,0.999133
30989,2,0,-72.0000,8.971834,-0.671394,4.234172,0.027727,-0.061478,0.130563,-0.003431,-0.048142,0.034455,-0.463889,-0.013055,-0.908983,0.089709,-0.006698,0.042363,1.000000,-0.000017,-0.000241,0.000172,0.999776,-0.017666,-0.011504,0.002064,-2.027616,-1.313873,0.259796,0.999727,0.004533,0.022929,-0.003720,0.999367,-0.035372,-0.023075,0.035277,0.999111
30990,2,0,-72.0000,8.972660,-0.691684,4.261165,-0.000656,-0.076355,0.144157,-0.014241,-0.020096,0.033094,-0.461972,-0.015884,-0.910229,0.089723,-0.006899,0.042621,1.000000,-0.000071,-0.000100,0.000165,0.999771,-0.017839,-0.011606,0.002085,-2.047537,-1.325465,0.262668,0.999722,0.004583,0.023132,-0.003755,0.999355,-0.035719,-0.023280,0.035622,0.999094
30991,2,0,-72.0000,8.876408,-0.686138,4.204143,0.008045,-0.075145,0.032642,0.001394,-0.008274,0.033322,-0.474617,-0.015000,-0.912027,0.088763,-0.006847,0.042045,1.000000,0.000007,-0.000041,0.000167,0.999768,-0.017977,-0.011648,0.002178,-2.063461,-1.330041,0.273630,0.999719,0.004774,0.023212,-0.003937,0.999344,-0.035997,-0.023368,0.035895,0.999082
30992,2,0,-72.0000,8.786336,-0.660994,4.257254,-0.078627,-0.046274,-0.027367,-0.011452,-0.017691,0.033733,-0.462252,-0.018286,-0.918026,0.087861,-0.006593,0.042581,1.000000,-0.000057,-0.000088,0.000169,0.999764,-0.018146,-0.011737,0.002213,-2.082945,-1.340177,0.278011,0.999715,0.004851,0.023388,-0.003999,0.999332,-0.036336,-0.023549,0.036232,0.999066
30993,2,0,-73.0000,8.838562,-0.713413,4.168675,0.018541,-0.100089,-0.014900,-0.007311,-0.031972,0.029812,-0.462303,-0.012786,-0.922654,0.088380,-0.007119,0.041701,1.000000,-0.000037,-0.000160,0.000149,0.999759,-0.018293,-0.011900,0.002258,-2.099880,-1.358687,0.283734,0.999707,0.004951,0.023711,-0.004080,0.999321,-0.036631,-0.023877,0.036524,0.999048
30994,2,0,-73.0000,8.802112,-0.648719,4.241715,-0.063980,-0.028792,-0.020586,0.002738,-0.056131,0.030529,-0.469914,-0.012662,-0.915508,0.088010,-0.006474,0.042442,1.000000,0.000014,-0.000281,0.000153,0.999753,-0.018427,-0.012181,0.002358,-2.115442,-1.390643,0.295961,0.999692,0.005164,0.024269,-0.004266,0.999310,-0.036902,-0.024443,0.036787,0.999024
30995,2,0,-74.0000,8.875562,-0.662720,4.250266,-0.047051,-0.036984,0.050171,0.001476,-0.071975,0.026817,-0.470876,-0.016273,-0.915294,0.088741,-0.006616,0.042535,1.000000,0.000007,-0.000360,0.000134,0.999746,-0.018552,-0.012542,0.002452,-2.130065,-1.431756,0.307703,0.999673,0.005369,0.024986,-0.004438,0.999300,-0.037156,-0.025168,0.037033,0.998997
30996,2,0,-74.0000,8.946607,-0.642042,4.257690,-0.029079,-0.011031,0.116106,0.008200,-0.068047,0.026426,-0.469845,-0.014527,-0.903224,0.089452,-0.006410,0.042607,1.000000,0.000041,-0.000340,0.000132,0.999740,-0.018659,-0.012883,0.002570,-2.142562,-1.470587,0.322124,0.999655,0.005620,0.025664,-0.004659,0.999290,-0.037374,-0.025856,0.037241,0.998972
30997,2,0,-73.0000,8.922814,-0.663544,4.241152,-0.031413,-0.032465,0.088941,0.001771,-0.051074,0.022663,-0.465022,-0.014954,-0.917989,0.089218,-0.006626,0.042434,1.000000,0.000009,-0.000255,0.000113,0.999734,-0.018758,-0.013144,0.002645,-2.154197,-1.500229,0.331373,0.999641,0.005782,0.026181,-0.004795,0.999282,-0.037576,-0.026379,0.037437,0.998951
30998,2,0,-73.0000,8.924669,-0.665466,4.236947,-0.031639,-0.032695,0.088939,0.000318,-0.043327,0.021413,-0.465875,-0.011459,-0.908249,0.089238,-0.006645,0.042389,1.000000,0.000002,-0.000217,0.000107,0.999729,-0.018853,-0.013364,0.002711,-2.165261,-1.525318,0.339570,0.999628,0.005924,0.026619,-0.004917,0.999274,-0.037769,-0.026823,0.037624,0.998932
30999,2,0,-73.0000,8.971378,-0.681736,4.205871,0.011372,-0.047458,0.118946,-0.002893,-0.040918,0.022618,-0.468589,-0.007137,-0.907694,0.089706,-0.006807,0.042077,1.000000,-0.000014,-0.000205,0.000113,0.999724,-0.018961,-0.013572,0.002766,-2.177753,-1.548949,0.346515,0.999616,0.006046,0.027031,-0.005016,0.999266,-0.037986,-0.027241,0.037836,0.998913
31000,2,0,-73.0000,8.999022,-0.664408,4.213635,0.013213,-0.026479,0.146112,-0.002785,-0.035411,0.023144,-0.475322,-0.014150,-0.909206,0.089984,-0.006633,0.042152,1.000000,-0.000014,-0.000177,0.000116,0.999720,-0.019068,-0.013752,0.002820,-2.190225,-1.569499,0.353285,0.999606,0.006164,0.027389,-0.005115,0.999257,-0.038203,-0.027605,0.038048,0.998895
31001,2,0,-72.0000,8.999897,-0.683320,4.240905,-0.015203,-0.041337,0.159695,0.001778,-0.027683,0.021326,-0.473734,-0.007511,-0.904810,0.089994,-0.006824,0.042421,1.000000,0.000009,-0.000138,0.000107,0.999716,-0.019157,-0.013897,0.002894,-2.200554,-1.585818,0.362204,0.999597,0.006319,0.027674,-0.005254,0.999249,-0.038383,-0.027896,0.038222,0.998880
31002,2,0,-72.0000,9.001025,-0.668289,4.208739,0.012726,-0.026911,0.146111,0.002623,-0.018260,0.022036,-0.464647,-0.008683,-0.911609,0.090007,-0.006674,0.042096,1.000000,0.000013,-0.000091,0.000110,0.999713,-0.019243,-0.013992,0.002966,-2.210579,-1.596518,0.370810,0.999591,0.006469,0.027861,-0.005392,0.999242,-0.038557,-0.028089,0.038391,0.998868
31003,2,0,-72.0000,8.946820,-0.657725,4.154266,0.037571,-0.020685,0.073378,0.007394,-0.015112,0.022157,-0.466474,-0.009872,-0.913968,0.089466,-0.006569,0.041549,1.000000,0.000037,-0.000076,0.000111,0.999710,-0.019320,-0.014071,0.003068,-2.219624,-1.605385,0.382826,0.999585,0.006679,0.028016,-0.005591,0.999235,-0.038715,-0.028253,0.038542,0.998857
31004,2,0,-72.0000,8.944608,-0.624727,4.152645,0.038401,0.013260,0.068563,0.008837,-0.010701,0.017235,-0.467842,-0.009589,-0.906430,0.089444,-0.006241,0.041531,1.000000,0.000044,-0.000054,0.000086,0.999708,-0.019369,-0.014130,0.003156,-2.225403,-1.611860,0.393088,0.999581,0.006858,0.028129,-0.005763,0.999230,-0.038815,-0.028373,0.038637,0.998850
31005,2,0,-72.0000,8.912768,-0.610470,4.199990,-0.018082,0.030879,0.058925,0.004398,-0.005134,0.019141,-0.471944,-0.016308,-0.909824,0.089127,-0.006097,0.042002,1.000000,0.000022,-0.000026,0.000096,0.999706,-0.019436,-0.014160,0.003232,-2.233230,-1.615107,0.401935,0.999578,0.007012,0.028185,-0.005911,0.999224,-0.038952,-0.028436,0.038769,0.998844
31006,2,0,-72.0000,8.886614,-0.631323,4.188449,-0.020369,0.009445,0.031756,0.005429,-0.003720,0.016505,-0.472533,-0.008783,-0.913084,0.088866,-0.006307,0.041886,1.000000,0.000027,-0.000019,0.000083,0.999704,-0.019487,-0.014184,0.003301,-2.239242,-1.617695,0.410004,0.999576,0.007153,0.028230,-0.006047,0.999219,-0.039057,-0.028488,0.038869,0.998838
31007,2,0,-72.0000,8.870855,-0.616562,4.196934,-0.034666,0.025466,0.020147,-0.003901,-0.006797,0.017761,-0.471664,-0.015119,-0.910514,0.088708,-0.006157,0.041972,1.000000,-0.000020,-0.000034,0.000089,0.999702,-0.019566,-0.014225,0.003330,-2.248339,-1.622272,0.413584,0.999573,0.007215,0.028310,-0.006102,0.999212,-0.039215,-0.028571,0.039026,0.998830
31008,2,0,-72.0000,8.884085,-0.617014,4.216770,-0.047939,0.028509,0.040520,-0.006090,-0.010764,0.016777,-0.468711,-0.011310,-0.908453,0.088839,-0.006161,0.042173,1.000000,-0.000030,-0.000054,0.000084,0.999699,-0.019646,-0.014285,0.003350,-2.257539,-1.629098,0.416109,0.999569,0.007259,0.028429,-0.006137,0.999206,-0.039375,-0.028693,0.039184,0.998820
31009,2,0,-71.0000,8.897437,-0.617684,4.236321,-0.061224,0.031554,0.060893,-0.007639,-0.012882,0.020728,-0.471147,-0.009743,-0.909681,0.088972,-0.006166,0.042369,1.000000,-0.000038,-0.000064,0.000104,0.999696,-0.019747,-0.014355,0.003369,-2.269248,-1.637046,0.418565,0.999565,0.007302,0.028568,-0.006168,0.999197,-0.039579,-0.028834,0.039386,0.998808
31010,2,0,-71.0000,8.927072,-0.617865,4.216535,-0.032288,0.033017,0.079300,-0.012221,-0.016242,0.016821,-0.463170,-0.021151,-0.917286,0.089268,-0.006169,0.042173,1.000000,-0.000061,-0.000081,0.000084,0.999693,-0.019842,-0.014443,0.003362,-2.280148,-1.647120,0.418184,0.999560,0.007296,0.028744,-0.006149,0.999190,-0.039769,-0.029011,0.039575,0.998795
31011,2,0,-71.0000,8.898404,-0.622042,4.233651,-0.061653,0.031085,0.060892,-0.015720,-0.011328,0.020847,-0.475501,-0.005730,-0.905830,0.088982,-0.006208,0.042342,1.000000,-0.000079,-0.000057,0.000104,0.999690,-0.019961,-0.014504,0.003340,-2.293762,-1.654156,0.415938,0.999557,0.007256,0.028866,-0.006098,0.999181,-0.040006,-0.029133,0.039813,0.998782
31012,2,0,-71.0000,8.888457,-0.659928,4.212221,-0.049880,-0.006587,0.045328,-0.014615,-0.015631,0.013897,-0.466535,-0.015755,-0.905724,0.088882,-0.006590,0.042130,1.000000,-0.000073,-0.000078,0.000069,0.999687,-0.020048,-0.014591,0.003316,-2.303714,-1.664063,0.413562,0.999552,0.007215,0.029039,-0.006045,0.999174,-0.040180,-0.029305,0.039986,0.998770
31013,2,0,-70.0000,8.886467,-0.627657,4.210174,-0.049075,0.027371,0.040518,-0.017298,-0.016872,0.019512,-0.467868,-0.013821,-0.909154,0.088862,-0.006264,0.042110,1.000000,-0.000086,-0.000084,0.000098,0.999683,-0.020167,-0.014683,0.003293,-2.317343,-1.674606,0.411341,0.999547,0.007176,0.029223,-0.005992,0.999165,-0.040417,-0.029489,0.040224,0.998755
31014,2,0,-70.0000,8.918308,-0.679192,4.221051,-0.049349,-0.020006,0.077306,-0.015433,-0.009472,0.012307,-0.472478,-0.005645,-0.914481,0.089182,-0.006783,0.042215,1.000000,-0.000077,-0.000047,0.000062,0.999681,-0.020246,-0.014739,0.003261,-2.326473,-1.681088,0.407902,0.999544,0.007116,0.029336,-0.005922,0.999159,-0.040576,-0.029600,0.040384,0.998746
31015,2,0,-70.0000,8.931913,-0.663003,4.210590,-0.034464,-0.002285,0.084106,-0.020506,-0.010105,0.015002,-0.472287,-0.012424,-0.911567,0.089318,-0.006619,0.042111,1.000000,-0.000103,-0.000051,0.000075,0.999678,-0.020350,-0.014798,0.003213,-2.338353,-1.687889,0.402778,0.999541,0.007027,0.029455,-0.005822,0.999151,-0.040783,-0.029717,0.040593,0.998734
31016,2,0,-71.0000,8.947905,-0.681462,4.200928,-0.020635,-0.018755,0.095714,-0.017576,-0.002221,0.016170,-0.465079,-0.012199,-0.915770,0.089479,-0.006804,0.042011,1.000000,-0.000088,-0.000011,0.000081,0.999676,-0.020450,-0.014817,0.003178,-2.349770,-1.690103,0.398956,0.999541,0.006960,0.029494,-0.005748,0.999143,-0.040982,-0.029754,0.040794,0.998724
31017,2,0,-70.0000,8.890080,-0.670408,4.207139,-0.051001,-0.007700,0.045321,-0.015115,-0.008544,0.014772,-0.468748,-0.003785,-0.910624,0.088899,-0.006694,0.042076,1.000000,-0.000076,-0.000043,0.000074,0.999674,-0.020541,-0.014866,0.003149,-2.360073,-1.695828,0.395853,0.999538,0.006906,0.029593,-0.005684,0.999136,-0.041161,-0.029852,0.040974,0.998714
31018,2,0,-70.0000,8.916821,-0.652947,4.217036,-0.049176,0.013270,0.072495,-0.014527,-0.017908,0.014855,-0.467791,-0.010777,-0.905087,0.089165,-0.006520,0.042179,1.000000,-0.000073,-0.000090,0.000074,0.999670,-0.020632,-0.014964,0.003128,-2.370572,-1.706992,0.393869,0.999533,0.006871,0.029788,-0.005636,0.999129,-0.041344,-0.030046,0.041157,0.998701
31019,2,0,-69.0000,8.935952,-0.688640,4.177106,-0.008232,-0.022679,0.075340,-0.020933,-0.008733,0.011564,-0.468151,-0.003869,-0.921330,0.089358,-0.006877,0.041776,1.000000,-0.000105,-0.000044,0.000058,0.999668,-0.020722,-0.015017,0.003074,-2.380787,-1.713167,0.388014,0.999530,0.006769,0.029896,-0.005524,0.999122,-0.041522,-0.030151,0.041337,0.998690
31020,2,0,-69.0000,8.838919,-0.698025,4.151400,-0.027607,-0.036083,-0.022601,-0.017286,-0.004720,0.013352,-0.483042,-0.013076,-0.912134,0.088389,-0.006971,0.041517,1.000000,-0.000086,-0.000024,0.000067,0.999666,-0.020809,-0.015049,0.003035,-2.390754,-1.716932,0.383716,0.999529,0.006694,0.029962,-0.005441,0.999116,-0.041696,-0.030214,0.041513,0.998681
31021,2,0,-69.0000,8.896921,-0.729955,4.173566,-0.025839,-0.062248,0.041355,-0.014016,-0.017198,0.013534,-0.478743,-0.008426,-0.912398,0.088966,-0.007291,0.041744,1.000000,-0.000070,-0.000086,0.000068,0.999662,-0.020894,-0.015144,0.003016,-2.400533,-1.727788,0.381887,0.999523,0.006662,0.030151,-0.005396,0.999109,-0.041866,-0.030403,0.041683,0.998668
31022,2,0,-69.0000,8.924104,-0.695291,4.153106,0.004141,-0.026607,0.054968,-0.010075,-0.015690,0.012504,-0.472017,-0.013995,-0.905955,0.089238,-0.006945,0.041538,1.000000,-0.000050,-0.000078,0.000063,0.999660,-0.020965,-0.015230,0.003009,-2.408657,-1.737700,0.381492,0.999518,0.006655,0.030324,-0.005378,0.999103,-0.042007,-0.030576,0.041824,0.998657
31023,2,0,-69.0000,8.908621,-0.697381,4.190634,-0.038323,-0.025264,0.056921,-0.006876,-0.018098,0.011288,-0.471655,-0.010962,-0.910518,0.089083,-0.006967,0.041915,1.000000,-0.000034,-0.000090,0.000056,0.999657,-0.021024,-0.015330,0.003012,-2.415467,-1.749137,0.382128,0.999512,0.006666,0.030523,-0.005377,0.999098,-0.042126,-0.030777,0.041941,0.998646
31024,2,0,-69.0000,8.936100,-0.645391,4.140152,0.019812,0.025051,0.056976,-0.007589,-0.014228,0.010672,-0.469661,-0.010748,-0.907697,0.089358,-0.006448,0.041408,1.000000,-0.000038,-0.000071,0.000053,0.999654,-0.021080,-0.015410,0.003012,-2.421990,-1.758245,0.382476,0.999507,0.006672,0.030682,-0.005373,0.999093,-0.042239,-0.030936,0.042054,0.998636
31025,2,0,-68.0000,8.925539,-0.716134,4.178834,-0.024716,-0.041958,0.068526,-0.007073,-0.013522,0.009356,-0.471453,-0.015164,-0.911716,0.089253,-0.007156,0.041795,1.000000,-0.000035,-0.000068,0.000047,0.999652,-0.021130,-0.015486,0.003009,-2.427702,-1.766988,0.382384,0.999502,0.006671,0.030835,-0.005362,0.999089,-0.042339,-0.031089,0.042152,0.998627
31026,2,0,-68.0000,8.968427,-0.697148,4.149670,0.019314,-0.022559,0.093753,-0.006557,-0.012815,0.008039,-0.472025,-0.013841,-0.909236,0.089682,-0.006967,0.041503,1.000000,-0.000033,-0.000064,0.000040,0.999650,-0.021172,-0.015560,0.003008,-2.432563,-1.775388,0.382528,0.999498,0.006673,0.030981,-0.005355,0.999085,-0.042423,-0.031236,0.042236,0.998619
31027,2,0,-68.0000,8.952974,-0.681819,4.157783,0.005035,-0.006562,0.082145,-0.005912,-0.006614,0.007260,-0.478745,-0.007596,-0.900078,0.089529,-0.006814,0.041581,1.000000,-0.000030,-0.000033,0.000036,0.999649,-0.021207,-0.015602,0.002997,-2.436568,-1.780269,0.381419,0.999495,0.006654,0.031067,-0.005330,0.999083,-0.042493,-0.031321,0.042306,0.998614
31028,2,0,-68.0000,8.953131,-0.682772,4.157288,0.004810,-0.006790,0.082145,-0.007140,-0.003452,0.007961,-0.477765,-0.010649,-0.911252,0.089531,-0.006823,0.041575,1.000000,-0.000036,-0.000017,0.000040,0.999648,-0.021248,-0.015629,0.002991,-2.441228,-1.783341,0.380870,0.999494,0.006644,0.031120,-0.005316,0.999079,-0.042574,-0.031374,0.042387,0.998609
31029,2,0,-68.0000,8.940125,-0.684731,4.136515,0.017596,-0.010264,0.061776,-0.005687,0.000952,0.003048,-0.472653,-0.007232,-0.910286,0.089402,-0.006845,0.041365,1.000000,-0.000028,0.000005,0.000015,0.999647,-0.021263,-0.015638,0.002979,-2.442918,-1.784371,0.379563,0.999493,0.006621,0.031138,-0.005291,0.999078,-0.042603,-0.031392,0.042417,0.998607
31030,2,0,-68.0000,8.924547,-0.652234,4.115482,0.031476,0.020428,0.036614,-0.009306,0.000370,0.006546,-0.479578,-0.006069,-0.908416,0.089246,-0.006518,0.041155,1.000000,-0.000047,0.000002,0.000033,0.999646,-0.021301,-0.015646,0.002959,-2.447247,-1.785375,0.377390,0.999493,0.006583,0.031156,-0.005250,0.999075,-0.042679,-0.031408,0.042494,0.998603
31031,2,0,-68.0000,8.926608,-0.704673,4.146135,0.002027,-0.028629,0.054963,-0.014058,0.005021,0.005996,-0.464880,-0.011075,-0.910123,0.089267,-0.007041,0.041460,1.000000,-0.000070,0.000025,0.000030,0.999646,-0.021347,-0.015634,0.002920,-2.452440,-1.783985,0.372917,0.999494,0.006505,0.031131,-0.005171,0.999072,-0.042769,-0.031381,0.042587,0.998600
31032,2,0,-68.0000,8.911087,-0.655451,4.095498,0.044066,0.016744,0.016248,-0.018002,0.007875,0.001311,-0.470701,-0.013473,-0.911002,0.089113,-0.006550,0.040952,1.000000,-0.000090,0.000039,0.000007,0.999646,-0.021378,-0.015607,0.002848,-2.455930,-1.781137,0.364655,0.999497,0.006361,0.031082,-0.005027,0.999070,-0.042830,-0.031325,0.042652,0.998599
31033,2,0,-68.0000,8.886658,-0.727120,4.115329,0.012629,-0.053534,0.007410,-0.021429,0.007078,0.001024,-0.475139,-0.006441,-0.913131,0.088868,-0.007266,0.041151,1.000000,-0.000107,0.000035,0.000005,0.999645,-0.021416,-0.015584,0.002754,-2.460097,-1.778682,0.353926,0.999499,0.006174,0.031039,-0.004839,0.999068,-0.042903,-0.031275,0.042731,0.998597
31034,2,0,-68.0000,8.883967,-0.693804,4.115160,0.013450,-0.019584,0.002618,-0.023208,0.001753,0.003466,-0.472332,-0.011021,-0.914008,0.088840,-0.006932,0.041152,1.000000,-0.000116,0.000009,0.000017,0.999644,-0.021470,-0.015588,0.002665,-2.466169,-1.779345,0.343805,0.999500,0.005998,0.031050,-0.004659,0.999064,-0.043009,-0.031279,0.042843,0.998592
31035,2,0,-68.0000,8.896662,-0.710974,4.165677,-0.027994,-0.031225,0.036535,-0.027994,-0.001375,0.003341,-0.470475,0.001720,-0.900714,0.088966,-0.007102,0.041658,1.000000,-0.000140,-0.000007,0.000017,0.999643,-0.021536,-0.015608,0.002555,-2.473520,-1.781896,0.331369,0.999500,0.005781,0.031095,-0.004436,0.999059,-0.043137,-0.031315,0.042977,0.998585
31036,2,0,-68.0000,8.954982,-0.708330,4.128278,0.030083,-0.028066,0.073385,-0.027512,-0.004090,-0.003264,-0.469631,-0.010245,-0.907165,0.089549,-0.007079,0.041286,1.000000,-0.000138,-0.000020,-0.000016,0.999642,-0.021571,-0.015644,0.002433,-2.477341,-1.786300,0.317556,0.999499,0.005540,0.031172,-0.004190,0.999058,-0.043203,-0.031382,0.043051,0.998580
31037,2,0,-68.0000,8.923469,-0.676743,4.146045,0.001746,0.004227,0.050170,-0.026446,0.000747,-0.000607,-0.476672,-0.006949,-0.907974,0.089235,-0.006762,0.041461,1.000000,-0.000132,0.000004,-0.000003,0.999641,-0.021616,-0.015655,0.002329,-2.482332,-1.787822,0.305734,0.999499,0.005333,0.031198,-0.003980,0.999055,-0.043290,-0.031400,0.043144,0.998575
31038,2,0,-68.0000,8.939576,-0.677067,4.106723,0.043734,0.002442,0.048230,-0.027806,-0.001584,-0.000446,-0.479901,-0.005656,-0.911811,0.089395,-0.006765,0.041069,1.000000,-0.000139,-0.000008,-0.000002,0.999640,-0.021664,-0.015678,0.002212,-2.487602,-1.790676,0.292395,0.999499,0.005101,0.031248,-0.003742,0.999052,-0.043382,-0.031440,0.043243,0.998570
31039,2,0,-68.0000,8.952590,-0.676847,4.127198,0.030412,0.005492,0.068598,-0.023959,0.002208,-0.002437,-0.472774,-0.003532,-0.909403,0.089526,-0.006765,0.041272,1.000000,-0.000120,0.000011,-0.000012,0.999639,-0.021695,-0.015683,0.002110,-2.490933,-1.791561,0.280856,0.999499,0.004899,0.031264,-0.003538,0.999050,-0.043440,-0.031447,0.043308,0.998567
31040,2,0,-68.0000,8.936961,-0.644522,4.106330,0.044291,0.036193,0.043446,-0.027679,0.003914,0.000095,-0.471185,-0.010091,-0.913494,0.089370,-0.006439,0.041062,1.000000,-0.000138,0.000020,0.000000,0.999639,-0.021743,-0.015678,0.001993,-2.496274,-1.791251,0.267498,0.999500,0.004666,0.031258,-0.003303,0.999047,-0.043533,-0.031431,0.043408,0.998563
31041,2,0,-68.0000,8.921001,-0.629327,4.115585,0.030018,0.052231,0.031840,-0.031529,0.004490,-0.003626,-0.478132,-0.007804,-0.906412,0.089211,-0.006288,0.041155,1.000000,-0.000158,0.000022,-0.000018,0.999638,-0.021784,-0.015671,0.001854,-2.500736,-1.790829,0.251609,0.999502,0.004389,0.031251,-0.003024,0.999044,-0.043611,-0.031412,0.043495,0.998560
31042,2,0,-68.0000,8.923257,-0.664723,4.116281,0.028755,0.017827,0.036627,-0.032243,0.008362,-0.004237,-0.468381,-0.008594,-0.915738,0.089234,-0.006642,0.041160,1.000000,-0.000161,0.000042,-0.000021,0.999638,-0.021822,-0.015646,0.001706,-2.504799,-1.788285,0.234625,0.999505,0.004093,0.031206,-0.002727,0.999042,-0.043682,-0.031355,0.043575,0.998558
31043,2,0,-68.0000,8.909939,-0.666786,4.096166,0.041595,0.014369,0.016262,-0.036612,0.008233,-0.006645,-0.470587,-0.009146,-0.913524,0.089101,-0.006663,0.040959,1.000000,-0.000183,0.000041,-0.000033,0.999638,-0.021860,-0.015623,0.001534,-2.508773,-1.786035,0.214942,0.999507,0.003750,0.031167,-0.002384,0.999040,-0.043751,-0.031301,0.043655,0.998556
31044,2,0,-68.0000,8.896649,-0.668880,4.075988,0.054438,0.010897,-0.004102,-0.038588,0.007486,-0.006135,-0.472547,-0.004531,-0.918552,0.088968,-0.006684,0.040758,1.000000,-0.000193,0.000037,-0.000031,0.999637,-0.021903,-0.015603,0.001353,-2.513427,-1.784223,0.194265,0.999509,0.003389,0.031136,-0.002022,0.999037,-0.043832,-0.031254,0.043748,0.998554
31045,2,0,-68.0000,8.859510,-0.741362,4.074368,0.036084,-0.062602,-0.033332,-0.022255,-0.003649,-0.009760,-0.470053,-0.011568,-0.911605,0.088594,-0.007413,0.040746,1.000000,-0.000111,-0.000018,-0.000049,0.999637,-0.021898,-0.015638,0.001245,-2.512724,-1.788445,0.181905,0.999508,0.003173,0.031209,-0.001804,0.999038,-0.043820,-0.031318,0.043742,0.998552
31046,2,0,-68.0000,8.946231,-0.647750,4.187388,-0.025386,0.042940,0.086118,-0.026331,-0.010645,-0.009286,-0.475609,-0.011623,-0.906870,0.089460,-0.006476,0.041879,1.000000,-0.000132,-0.000053,-0.000046,0.999636,-0.021906,-0.015708,0.001117,-2.513350,-1.796851,0.167419,0.999504,0.002921,0.031356,-0.001544,0.999038,-0.043831,-0.031454,0.043760,0.998547
31047,2,0,-68.0000,9.022732,-0.711721,4.171044,0.017530,-0.019009,0.152913,-0.027953,0.001676,-0.012421,-0.471114,-0.007262,-0.908329,0.090227,-0.007117,0.041711,1.000000,-0.000140,0.000008,-0.000062,0.999636,-0.021899,-0.015719,0.000967,-2.512343,-1.798445,0.150325,0.999504,0.002622,0.031384,-0.001245,0.999039,-0.043813,-0.031468,0.043752,0.998547
31048,2,0,-68.0000,9.006466,-0.712730,4.210484,-0.024911,-0.017689,0.154843,-0.027601,0.010378,-0.010362,-0.470005,-0.008460,-0.914093,0.090066,-0.007126,0.042101,1.000000,-0.000138,0.000052,-0.000052,0.999637,-0.021899,-0.015685,0.000826,-2.512037,-1.794933,0.134054,0.999507,0.002339,0.031322,-0.000965,0.999040,-0.043808,-0.031395,0.043756,0.998549
31049,2,0,-68.0000,9.006072,-0.712983,4.211284,-0.025125,-0.017898,0.154842,-0.029674,0.011919,-0.010811,-0.467724,-0.017616,-0.904573,0.090063,-0.007128,0.042109,1.000000,-0.000148,0.000060,-0.000054,0.999638,-0.021902,-0.015643,0.000677,-2.512070,-1.790531,0.116876,0.999510,0.002039,0.031246,-0.000668,0.999040,-0.043808,-0.031305,0.043766,0.998551
31050,2,0,-68.0000,8.995467,-0.731814,4.161714,0.014843,-0.040854,0.125720,-0.029255,0.010547,-0.007382,-0.476015,-0.011936,-0.918983,0.089957,-0.007315,0.041613,1.000000,-0.000146,0.000053,-0.000037,0.999638,-0.021918,-0.015608,0.000535,-2.513706,-1.786822,0.100519,0.999512,0.001754,0.031181,-0.000385,0.999039,-0.043837,-0.031228,0.043804,0.998552
31051,2,0,-68.0000,8.976793,-0.681751,4.171211,0.001600,0.009325,0.109335,-0.032072,0.008175,-0.008030,-0.475435,-0.022405,-0.907232,0.089769,-0.006814,0.041710,1.000000,-0.000160,0.000041,-0.000040,0.999638,-0.021938,-0.015584,0.000371,-2.515691,-1.784535,0.081661,0.999514,0.001425,0.031141,-0.000057,0.999037,-0.043872,-0.031173,0.043849,0.998552
31052,2,0,-68.0000,8.950434,-0.684597,4.130594,0.027516,0.002614,0.068608,-0.033305,0.011340,-0.007323,-0.476212,-0.010619,-0.907112,0.089506,-0.006842,0.041302,1.000000,-0.000167,0.000057,-0.000037,0.999638,-0.021963,-0.015545,0.000210,-2.518319,-1.780462,0.063219,0.999517,0.001103,0.031070,0.000263,0.999035,-0.043918,-0.031088,0.043905,0.998552
31053,2,0,-67.0000,8.884870,-0.707587,4.057887,0.064458,-0.028535,-0.019676,-0.029194,0.004857,-0.011725,-0.467070,-0.007440,-0.906822,0.088849,-0.007075,0.040578,1.000000,-0.000146,0.000024,-0.000059,0.999638,-0.021961,-0.015541,0.000049,-2.517759,-1.780385,0.044728,0.999517,0.000780,0.031069,0.000585,0.999035,-0.043908,-0.031073,0.043905,0.998552
31054,2,0,-67.0000,8.894930,-0.706677,4.137819,-0.004125,-0.020732,0.022976,-0.028928,-0.009797,-0.008449,-0.479477,-0.009013,-0.899707,0.088947,-0.007065,0.041384,1.000000,-0.000145,-0.000049,-0.000042,0.999637,-0.021978,-0.015607,-0.000089,-2.519425,-1.788328,0.029097,0.999513,0.000508,0.031207,0.000864,0.999034,-0.043937,-0.031199,0.043942,0.998547
31055,2,0,-67.0000,8.898284,-0.724475,4.106814,0.022752,-0.040417,0.014220,-0.035176,-0.012961,-0.009392,-0.473612,-0.010643,-0.911716,0.088980,-0.007242,0.041075,1.000000,-0.000176,-0.000065,-0.000047,0.999635,-0.022006,-0.015692,-0.000253,-2.522355,-1.798411,0.010575,0.999507,0.000184,0.031383,0.001197,0.999031,-0.043987,-0.031361,0.044003,0.998539
31056,2,0,-67.0000,8.885635,-0.743378,4.114634,0.007441,-0.058579,0.007386,-0.032167,-0.015165,-0.006830,-0.479549,-0.007914,-0.904324,0.088853,-0.007430,0.041154,1.000000,-0.000161,-0.000076,-0.000034,0.999632,-0.022038,-0.015784,-0.000401,-2.525815,-1.809417,-0.006074,0.999501,-0.000106,0.031575,0.001497,0.999028,-0.044048,-0.031540,0.044073,0.998530
31057,2,0,-67.0000,8.941089,-0.756936,4.165982,-0.017978,-0.065312,0.080079,-0.028320,-0.011368,-0.008808,-0.469224,-0.014139,-0.914489,0.089408,-0.007567,0.041666,1.000000,-0.000142,-0.000057,-0.000044,0.999631,-0.022053,-0.015860,-0.000535,-2.527298,-1.818423,-0.021186,0.999496,-0.000370,0.031732,0.001769,0.999027,-0.044073,-0.031685,0.044107,0.998524
31058,2,0,-67.0000,8.984008,-0.719303,4.107736,0.054182,-0.031206,0.091826,-0.009588,0.002513,-0.011678,-0.462440,-0.010279,-0.911908,0.089840,-0.007196,0.041077,1.000000,-0.000048,0.000013,-0.000058,0.999632,-0.022010,-0.015864,-0.000596,-2.522182,-1.819058,-0.028274,0.999496,-0.000493,0.031743,0.001890,0.999030,-0.043984,-0.031691,0.044022,0.998528
31059,2,0,-67.0000,8.864932,-0.692874,4.181682,-0.061526,-0.004030,0.013287,-0.018493,0.005870,-0.007412,-0.474862,-0.014075,-0.905607,0.088650,-0.006928,0.041815,1.000000,-0.000092,0.000029,-0.000037,0.999632,-0.022004,-0.015849,-0.000691,-2.521356,-1.817516,-0.039228,0.999497,-0.000684,0.031716,0.002079,0.999031,-0.043970,-0.031655,0.044013,0.998529
31060,2,0,-67.0000,8.941081,-0.757079,4.165972,-0.018610,-0.065988,0.080074,-0.034486,0.004441,-0.005250,-0.470702,-0.009544,-0.910454,0.089412,-0.007566,0.041659,1.000000,-0.000172,0.000022,-0.000026,0.999631,-0.022043,-0.015843,-0.000851,-2.525558,-1.817313,-0.057459,0.999497,-0.001002,0.031713,0.002399,0.999027,-0.044043,-0.031638,0.044097,0.998526
31061,2,0,-67.0000,8.854636,-0.712502,4.131263,-0.021777,-0.027187,-0.015833,-0.018515,-0.006294,-0.001319,-0.472771,-0.010822,-0.916522,0.088545,-0.007122,0.041316,1.000000,-0.000093,-0.000031,-0.000007,0.999630,-0.022068,-0.015889,-0.000929,-2.528311,-1.822736,-0.066254,0.999493,-0.001156,0.031807,0.002558,0.999024,-0.044091,-0.031725,0.044150,0.998521
31062,2,0,-67.0000,8.910601,-0.708879,4.152173,-0.019016,-0.019246,0.043333,-0.016229,-0.033677,-0.002519,-0.477141,-0.015308,-0.910473,0.089099,-0.007087,0.041537,1.000000,-0.000081,-0.000168,-0.000013,0.999626,-0.022090,-0.016071,-0.000991,-2.530729,-1.843748,-0.072893,0.999481,-0.001272,0.032174,0.002692,0.999022,-0.044132,-0.032086,0.044196,0.998507
31063,2,0,-66.0000,9.035354,-0.700068,4.215126,-0.026354,0.000095,0.182027,-0.015192,-0.036635,0.000551,-0.474863,-0.013140,-0.916009,0.090346,-0.006997,0.042168,1.000000,-0.000076,-0.000183,0.000003,0.999622,-0.022125,-0.016267,-0.001045,-2.534594,-1.866295,-0.078480,0.999469,-0.001369,0.032567,0.002809,0.999019,-0.044199,-0.032475,0.044267,0.998492
31064,2,0,-67.0000,9.010444,-0.719793,4.200761,-0.028589,-0.021306,0.154826,-0.014459,-0.028335,-0.004942,-0.472578,-0.017969,-0.909229,0.090098,-0.007197,0.042021,1.000000,-0.000072,-0.000142,-0.000025,0.999620,-0.022131,-0.016423,-0.001106,-2.535148,-1.884332,-0.085056,0.999458,-0.001484,0.032882,0.002937,0.999018,-0.044208,-0.032784,0.044281,0.998481
31065,2,0,-66.0000,8.985580,-0.722040,4.156920,-0.002655,-0.028010,0.114104,-0.017993,-0.026833,-0.006192,-0.481294,-0.007257,-0.910557,0.089850,-0.007219,0.041582,1.000000,-0.000090,-0.000134,-0.000031,0.999617,-0.022138,-0.016572,-0.001193,-2.535804,-1.901616,-0.094669,0.999448,-0.001651,0.033183,0.003119,0.999017,-0.044219,-0.033078,0.044298,0.998471
31066,2,0,-66.0000,8.994901,-0.773902,4.065338,0.078515,-0.086663,0.087841,-0.017642,-0.018139,-0.004111,-0.473244,-0.016203,-0.908617,0.089945,-0.007737,0.040662,1.000000,-0.000088,-0.000091,-0.000021,0.999615,-0.022152,-0.016677,-0.001269,-2.537224,-1.913868,-0.103077,0.999441,-0.001798,0.033397,0.003276,0.999015,-0.044244,-0.033285,0.044328,0.998462
31067,2,0,-66.0000,8.969442,-0.776361,4.022663,0.104430,-0.093342,0.047121,-0.016674,-0.011027,-0.002387,-0.476366,-0.010614,-0.916068,0.089692,-0.007761,0.040232,1.000000,-0.000083,-0.000055,-0.000012,0.999613,-0.022169,-0.016747,-0.001339,-2.539132,-1.922059,-0.110939,0.999436,-0.001935,0.033540,0.003420,0.999013,-0.044277,-0.033421,0.044367,0.998456
31068,2,0,-66.0000,8.940767,-0.778691,4.040223,0.075070,-0.095260,0.028673,-0.005860,-0.007941,-0.002821,-0.480350,-0.011778,-0.912952,0.089406,-0.007787,0.040406,1.000000,-0.000029,-0.000040,-0.000014,0.999612,-0.022160,-0.016800,-0.001362,-2.538035,-1.928166,-0.113416,0.999432,-0.001978,0.033646,0.003467,0.999014,-0.044258,-0.033526,0.044349,0.998453
31069,2,0,-66.0000,8.941041,-0.778821,4.039593,0.074839,-0.095470,0.028673,-0.003234,-0.005373,0.001616,-0.477695,-0.011380,-0.911014,0.089409,-0.007787,0.040398,1.000000,-0.000016,-0.000027,0.000008,0.999612,-0.022165,-0.016838,-0.001364,-2.538601,-1.932584,-0.113495,0.999429,-0.001980,0.033724,0.003473,0.999014,-0.044267,-0.033603,0.044359,0.998450
31070,2,0,-66.0000,8.936203,-0.709705,4.038833,0.076669,-0.027331,0.019146,0.002327,-0.007424,-0.007693,-0.477074,-0.014274,-0.908317,0.089360,-0.007101,0.040392,1.000000,0.000012,-0.000037,-0.000038,0.999612,-0.022116,-0.016889,-0.001360,-2.532978,-1.938436,-0.113064,0.999426,-0.001972,0.033826,0.003466,0.999018,-0.044169,-0.033705,0.044261,0.998451
31071,2,0,-66.0000,8.946819,-0.690961,4.088597,0.036213,-0.004846,0.048260,0.003079,-0.007898,-0.001792,-0.476897,-0.011275,-0.905670,0.089467,-0.006911,0.040889,1.000000,0.000015,-0.000039,-0.000009,0.999611,-0.022092,-0.016941,-0.001343,-2.530287,-1.944354,-0.110996,0.999422,-0.001936,0.033929,0.003433,0.999020,-0.044122,-0.033810,0.044213,0.998450
31072,2,0,-66.0000,8.960428,-0.672080,4.078621,0.051067,0.012868,0.055105,0.009291,-0.008132,-0.006154,-0.475519,-0.016393,-0.902262,0.089602,-0.006725,0.040790,1.000000,0.000046,-0.000041,-0.000031,0.999612,-0.022035,-0.016995,-0.001305,-2.523802,-1.950382,-0.106584,0.999419,-0.001859,0.034034,0.003357,0.999025,-0.044009,-0.033919,0.044098,0.998451
31073,2,0,-66.0000,8.989616,-0.686162,4.089488,0.051788,-0.000370,0.087072,0.008249,-0.005169,-0.009224,-0.471687,-0.012876,-0.917893,0.089895,-0.006867,0.040897,1.000000,0.000041,-0.000026,-0.000046,0.999613,-0.021966,-0.017036,-0.001282,-2.515890,-1.955019,-0.104070,0.999416,-0.001815,0.034115,0.003312,0.999032,-0.043871,-0.034002,0.043958,0.998455
31074,2,0,-66.0000,8.987033,-0.667953,4.119060,0.024425,0.018876,0.095825,0.004427,-0.001182,-0.007639,-0.485571,-0.015563,-0.909756,0.089870,-0.006684,0.041191,1.000000,0.000022,-0.000006,-0.000038,0.999614,-0.021911,-0.017056,-0.001271,-2.509585,-1.957260,-0.102811,0.999415,-0.001793,0.034154,0.003288,0.999037,-0.043761,-0.034043,0.043848,0.998458
31075,2,0,-66.0000,8.960776,-0.686438,4.107804,0.022194,-0.002514,0.068621,0.000278,0.001897,-0.008527,-0.471894,-0.017879,-0.904648,0.089608,-0.006868,0.041077,1.000000,0.000001,0.000009,-0.000043,0.999615,-0.021860,-0.017061,-0.001285,-2.503730,-1.957921,-0.104497,0.999415,-0.001823,0.034166,0.003315,0.999041,-0.043659,-0.034053,0.043747,0.998462
31076,2,0,-66.0000,8.958081,-0.651406,4.108068,0.022993,0.031443,0.063863,0.002290,0.006045,-0.003732,-0.482464,-0.012404,-0.913248,0.089582,-0.006516,0.041078,1.000000,0.000011,0.000030,-0.000019,0.999616,-0.021825,-0.017044,-0.001276,-2.499733,-1.955905,-0.103620,0.999416,-0.001807,0.034130,0.003295,0.999044,-0.043589,-0.034019,0.043676,0.998466
31077,2,0,-66.0000,8.958079,-0.633790,4.078657,0.050915,0.045928,0.050356,-0.002602,0.005213,-0.004826,-0.475459,-0.009679,-0.898186,0.089582,-0.006340,0.040784,1.000000,-0.000013,0.000026,-0.000024,0.999617,-0.021796,-0.017032,-0.001297,-2.496364,-1.954600,-0.106096,0.999416,-0.001851,0.034108,0.003336,0.999047,-0.043531,-0.033995,0.043619,0.998470
31078,2,0,-66.0000,8.960191,-0.685041,4.109313,0.021501,-0.003192,0.068622,-0.005719,0.009714,-0.008340,-0.473270,-0.016875,-0.906414,0.089604,-0.006853,0.041089,1.000000,-0.000029,0.000049,-0.000042,0.999618,-0.021757,-0.016999,-0.001335,-2.491793,-1.950882,-0.110644,0.999419,-0.001930,0.034043,0.003409,0.999050,-0.043451,-0.033927,0.043542,0.998475
31079,2,0,-66.0000,8.928509,-0.635115,4.098379,0.021314,0.043792,0.031904,-0.010410,0.004300,-0.007526,-0.474421,-0.015104,-0.915412,0.089286,-0.006352,0.040982,1.000000,-0.000052,0.000022,-0.000038,0.999618,-0.021733,-0.016993,-0.001394,-2.488997,-1.950414,-0.117374,0.999419,-0.002047,0.034035,0.003525,0.999051,-0.043402,-0.033913,0.043497,0.998478
31080,2,0,-66.0000,8.946557,-0.702487,4.119598,0.005954,-0.021574,0.061772,-0.008863,0.006436,-0.011465,-0.482379,-0.011112,-0.910554,0.089466,-0.007028,0.041193,1.000000,-0.000044,0.000032,-0.000057,0.999620,-0.021688,-0.016978,-0.001452,-2.483672,-1.948780,-0.124197,0.999419,-0.002166,0.034006,0.003639,0.999055,-0.043310,-0.033880,0.043408,0.998483
31081,2,0,-66.0000,8.946342,-0.701849,4.120173,0.005720,-0.021789,0.061772,-0.010938,0.007976,-0.011909,-0.474334,-0.008087,-0.909160,0.089465,-0.007022,0.041199,1.000000,-0.000055,0.000040,-0.000060,0.999621,-0.021645,-0.016956,-0.001522,-2.478625,-1.946380,-0.132403,0.999420,-0.002310,0.033964,0.003778,0.999058,-0.043222,-0.033832,0.043325,0.998488
31082,2,0,-66.0000,8.962184,-0.700243,4.081569,0.047709,-0.023542,0.059873,-0.009895,0.005013,-0.008840,-0.477901,-0.015816,-0.903792,0.089623,-0.007004,0.040814,1.000000,-0.000049,0.000025,-0.000044,0.999622,-0.021614,-0.016946,-0.001579,-2.474958,-1.945458,-0.139021,0.999421,-0.002425,0.033948,0.003890,0.999061,-0.043158,-0.033812,0.043265,0.998491
31083,2,0,-66.0000,8.946290,-0.683712,4.090970,0.033416,-0.007506,0.048268,-0.012095,0.001063,-0.009851,-0.464317,-0.013562,-0.901648,0.089463,-0.006839,0.040910,1.000000,-0.000060,0.000005,-0.000049,0.999622,-0.021585,-0.016958,-0.001646,-2.471522,-1.946966,-0.146742,0.999419,-0.002560,0.033974,0.004024,0.999063,-0.043098,-0.033832,0.043210,0.998493
31084,2,0,-66.0000,8.988253,-0.697298,4.122964,0.021066,-0.017532,0.100587,-0.012422,0.000156,-0.012325,-0.472130,-0.012981,-0.896042,0.089882,-0.006976,0.041230,1.000000,-0.000062,0.000001,-0.000062,0.999622,-0.021545,-0.016975,-0.001721,-2.466817,-1.949032,-0.155350,0.999418,-0.002710,0.034010,0.004173,0.999066,-0.043016,-0.033862,0.043133,0.998495
31085,2,0,-66.0000,8.988059,-0.713947,4.152957,-0.007318,-0.032466,0.114088,-0.014599,0.003988,-0.013723,-0.474760,-0.017666,-0.911407,0.089881,-0.007143,0.041528,1.000000,-0.000073,0.000020,-0.000069,0.999623,-0.021503,-0.016972,-0.001810,-2.461847,-1.948987,-0.165627,0.999417,-0.002889,0.034010,0.004349,0.999069,-0.042929,-0.033854,0.043052,0.998499
31086,2,0,-66.0000,8.972135,-0.697211,4.162450,-0.021599,-0.016449,0.102481,-0.008766,0.004149,-0.010512,-0.471046,-0.019993,-0.908637,0.089722,-0.006975,0.041623,1.000000,-0.000044,0.000021,-0.000053,0.999624,-0.021463,-0.016968,-0.001866,-2.457067,-1.948609,-0.172063,0.999417,-0.003001,0.034003,0.004458,0.999072,-0.042846,-0.033843,0.042973,0.998503
31087,2,0,-66.0000,9.006705,-0.711464,4.055216,0.089759,-0.039200,0.089944,-0.013840,0.015683,-0.013903,-0.485362,-0.007934,-0.907672,0.090070,-0.007118,0.040546,1.000000,-0.000069,0.000078,-0.000070,0.999626,-0.021414,-0.016907,-0.001963,-2.451300,-1.941855,-0.183437,0.999421,-0.003200,0.033885,0.004648,0.999075,-0.042746,-0.033717,0.042878,0.998511
31088,2,0,-66.0000,8.919187,-0.682426,4.052569,0.058480,-0.015069,0.007560,-0.004690,0.023321,-0.017045,-0.474600,-0.018486,-0.914226,0.089196,-0.006831,0.040515,1.000000,-0.000023,0.000117,-0.000085,0.999629,-0.021330,-0.016809,-0.002019,-2.441523,-1.930745,-0.190242,0.999427,-0.003318,0.033691,0.004753,0.999082,-0.042576,-0.033519,0.042711,0.998525
31089,2,0,-66.0000,8.937057,-0.731688,4.044969,0.071264,-0.065704,0.023915,-0.001074,0.011748,-0.014457,-0.475589,-0.003293,-0.906333,0.089372,-0.007323,0.040444,1.000000,-0.000005,0.000059,-0.000072,0.999631,-0.021253,-0.016769,-0.002049,-2.432680,-1.926176,-0.194034,0.999429,-0.003385,0.033612,0.004810,0.999088,-0.042422,-0.033438,0.042559,0.998534
31090,2,0,-66.0000,8.989126,-0.708917,4.098333,0.046838,-0.038336,0.091838,-0.000063,0.005392,-0.016696,-0.474335,-0.010435,-0.905600,0.089892,-0.007097,0.040981,1.000000,-0.000000,0.000027,-0.000083,0.999633,-0.021165,-0.016759,-0.002079,-2.422549,-1.925180,-0.197664,0.999430,-0.003448,0.033594,0.004867,0.999095,-0.042245,-0.033418,0.042384,0.998542
31091,2,0,-66.0000,9.017935,-0.722480,4.110175,0.047563,-0.051541,0.123799,0.002013,0.003854,-0.016252,-0.471280,-0.016492,-0.906329,0.090180,-0.007233,0.041100,1.000000,0.000010,0.000019,-0.000081,0.999635,-0.021077,-0.016758,-0.002088,-2.412462,-1.925053,-0.198787,0.999430,-0.003468,0.033592,0.004880,0.999103,-0.042069,-0.033416,0.042209,0.998550
31092,2,0,-66.0000,9.017826,-0.720990,4.110675,0.047335,-0.051767,0.123798,0.000777,0.007013,-0.015535,-0.474233,-0.012061,-0.911127,0.090179,-0.007217,0.041104,1.000000,0.000004,0.000035,-0.000078,0.999637,-0.020992,-0.016740,-0.002112,-2.402678,-1.923060,-0.201754,0.999431,-0.003519,0.033557,0.004925,0.999110,-0.041899,-0.033380,0.042040,0.998558
31093,2,0,-66.0000,9.020434,-0.736843,4.081595,0.074260,-0.071439,0.115050,0.000483,0.009499,-0.012702,-0.476545,-0.015314,-0.900647,0.090206,-0.007374,0.040812,1.000000,0.000002,0.000047,-0.000064,0.999639,-0.020921,-0.016709,-0.002132,-2.394425,-1.919487,-0.204254,0.999433,-0.003563,0.033495,0.004961,0.999116,-0.041755,-0.033317,0.041897,0.998566
31094,2,0,-66.0000,9.033133,-0.717180,4.073725,0.089103,-0.053724,0.121912,0.004343,0.021085,-0.015061,-0.476993,-0.012996,-0.906168,0.090335,-0.007179,0.040728,1.000000,0.000022,0.000105,-0.000075,0.999643,-0.020826,-0.016621,-0.002142,-2.383566,-1.909364,-0.205834,0.999438,-0.003590,0.033319,0.004975,0.999123,-0.041566,-0.033140,0.041708,0.998580
31095,2,0,-66.0000,9.003220,-0.717762,4.094287,0.059724,-0.055630,0.103445,0.010587,0.024256,-0.014113,-0.475850,-0.014612,-0.900452,0.090037,-0.007186,0.040932,1.000000,0.000053,0.000121,-0.000071,0.999647,-0.020722,-0.016517,-0.002123,-2.371668,-1.897420,-0.204080,0.999445,-0.003560,0.033110,0.004929,0.999132,-0.041359,-0.032934,0.041499,0.998596
31096,2,0,-66.0000,8.965900,-0.753455,4.034896,0.097764,-0.099678,0.047127,0.012970,0.028020,-0.016889,-0.479428,-0.017890,-0.902196,0.089664,-0.007545,0.040336,1.000000,0.000065,0.000140,-0.000084,0.999651,-0.020598,-0.016394,-0.002100,-2.357546,-1.883239,-0.201993,0.999454,-0.003524,0.032863,0.004874,0.999143,-0.041113,-0.032690,0.041251,0.998614
31097,2,0,-66.0000,8.956652,-0.665296,4.067260,0.072381,-0.012070,0.046392,0.019830,0.029615,-0.016299,-0.473401,-0.010872,-0.910728,0.089572,-0.006664,0.040659,1.000000,0.000099,0.000148,-0.000081,0.999656,-0.020462,-0.016264,-0.002048,-2.342055,-1.868210,-0.196605,0.999463,-0.003430,0.032601,0.004761,0.999154,-0.040843,-0.032433,0.040977,0.998634
31098,2,0,-66.0000,8.997424,-0.676939,4.102181,0.060016,-0.022114,0.098705,0.018884,0.030292,-0.018418,-0.473053,-0.014925,-0.906251,0.089980,-0.006782,0.041008,1.000000,0.000094,0.000151,-0.000092,0.999661,-0.020318,-0.016130,-0.002003,-2.325631,-1.852680,-0.191971,0.999472,-0.003349,0.032330,0.004660,0.999166,-0.040558,-0.032167,0.040687,0.998654
31099,2,0,-66.0000,8.970079,-0.693752,4.093718,0.057815,-0.043466,0.071488,0.019911,0.031725,-0.021046,-0.470767,-0.016656,-0.911243,0.089707,-0.006951,0.040922,1.000000,0.000100,0.000159,-0.000105,0.999667,-0.020161,-0.015989,-0.001955,-2.307687,-1.836440,-0.187136,0.999481,-0.003264,0.032046,0.004554,0.999179,-0.040245,-0.031889,0.040370,0.998676
31100,2,0,-66.0000,8.968952,-0.691033,4.096647,0.057588,-0.043691,0.071488,0.023442,0.030234,-0.019796,-0.480541,-0.015771,-0.907380,0.089695,-0.006924,0.040952,1.000000,0.000117,0.000151,-0.000099,0.999672,-0.020000,-0.015855,-0.001892,-2.289441,-1.820916,-0.180517,0.999490,-0.003149,0.031776,0.004417,0.999193,-0.039927,-0.031624,0.040047,0.998697
31101,2,0,-66.0000,8.968005,-0.688002,4.099231,0.057346,-0.043904,0.071488,0.024653,0.023685,-0.025818,-0.465164,-0.012279,-0.909979,0.089684,-0.006897,0.040981,1.000000,0.000123,0.000118,-0.000129,0.999678,-0.019813,-0.015757,-0.001836,-2.268057,-1.809466,-0.174678,0.999497,-0.003047,0.031576,0.004296,0.999208,-0.039555,-0.031430,0.039671,0.998718
31102,2,0,-66.0000,8.966934,-0.702078,4.131486,0.028955,-0.058861,0.084973,0.016549,0.025251,-0.025702,-0.473213,-0.015885,-0.905896,0.089674,-0.007036,0.041303,1.000000,0.000083,0.000126,-0.000129,0.999683,-0.019643,-0.015650,-0.001816,-2.248586,-1.797195,-0.172897,0.999504,-0.003016,0.031362,0.004246,0.999222,-0.039216,-0.031219,0.039330,0.998738
31103,2,0,-66.0000,8.992405,-0.679776,4.144898,0.030707,-0.037914,0.112192,0.020397,0.016879,-0.021579,-0.473559,-0.020257,-0.905446,0.089927,-0.006812,0.041441,1.000000,0.000102,0.000084,-0.000108,0.999687,-0.019486,-0.015583,-0.001764,-2.230718,-1.789378,-0.167404,0.999508,-0.002920,0.031225,0.004135,0.999234,-0.038905,-0.031088,0.039015,0.998755
31104,2,0,-66.0000,8.994577,-0.711479,4.146656,0.029466,-0.072326,0.116928,0.019880,0.016168,-0.020268,-0.468135,-0.020291,-0.913673,0.089948,-0.007128,0.041459,1.000000,0.000099,0.000081,-0.000101,0.999691,-0.019335,-0.015520,-0.001715,-2.213545,-1.781983,-0.162171,0.999512,-0.002829,0.031096,0.004029,0.999246,-0.038605,-0.030964,0.038712,0.998771
31105,2,0,-66.0000,8.975392,-0.658329,4.157246,0.016201,-0.022125,0.100587,0.022791,0.016257,-0.018658,-0.470199,-0.015000,-0.903318,0.089757,-0.006596,0.041564,1.000000,0.000114,0.000081,-0.000093,0.999695,-0.019185,-0.015455,-0.001655,-2.196483,-1.774389,-0.155655,0.999517,-0.002715,0.030964,0.003901,0.999258,-0.038308,-0.030837,0.038410,0.998786
31106,2,0,-66.0000,9.000953,-0.636224,4.170353,0.017937,-0.001204,0.127808,0.022683,0.018554,-0.019617,-0.469785,-0.021579,-0.901612,0.090013,-0.006376,0.041694,1.000000,0.000113,0.000093,-0.000098,0.999699,-0.019031,-0.015379,-0.001592,-2.178886,-1.765552,-0.148908,0.999522,-0.002598,0.030810,0.003768,0.999271,-0.038002,-0.030689,0.038099,0.998803
31107,2,0,-66.0000,8.971228,-0.618630,4.161003,0.016745,0.011616,0.095853,0.023001,0.027257,-0.017544,-0.473731,-0.015552,-0.903717,0.089717,-0.006199,0.041597,1.000000,0.000115,0.000136,-0.000088,0.999704,-0.018883,-0.015260,-0.001527,-2.162053,-1.751711,-0.142007,0.999530,-0.002477,0.030568,0.003630,0.999282,-0.037708,-0.030453,0.037802,0.998821
31108,2,0,-66.0000,8.943986,-0.635295,4.152381,0.014553,-0.009756,0.068631,0.021522,0.031612,-0.024057,-0.477666,-0.025026,-0.909112,0.089446,-0.006368,0.041509,1.000000,0.000108,0.000158,-0.000120,0.999710,-0.018708,-0.015121,-0.001482,-2.142015,-1.735644,-0.137477,0.999538,-0.002398,0.030288,0.003530,0.999296,-0.037359,-0.030177,0.037449,0.998843
31109,2,0,-66.0000,8.924132,-0.581817,4.164234,0.001252,0.040451,0.052293,0.022459,0.030947,-0.021940,-0.468992,-0.022335,-0.909679,0.089247,-0.005833,0.041628,1.000000,0.000112,0.000155,-0.000110,0.999715,-0.018540,-0.014985,-0.001433,-2.122880,-1.720022,-0.132373,0.999547,-0.002309,0.030016,0.003421,0.999308,-0.037026,-0.029909,0.037112,0.998863
31110,2,0,-68.0000,8.919831,-0.561698,4.197123,-0.026131,0.059674,0.061039,0.019646,0.036361,-0.023000,-0.475044,-0.021401,-0.905515,0.089205,-0.005631,0.041954,1.000000,0.000098,0.000182,-0.000115,0.999720,-0.018372,-0.014822,-0.001395,-2.103691,-1.701235,-0.128693,0.999557,-0.002245,0.029688,0.003334,0.999321,-0.036692,-0.029585,0.036775,0.998886
31111,2,0,-67.0000,8.879421,-0.579966,4.168246,-0.015230,0.035098,0.013466,0.006056,0.034253,-0.017938,-0.470667,-0.018665,-0.912936,0.088801,-0.005809,0.041667,1.000000,0.000030,0.000171,-0.000090,0.999725,-0.018257,-0.014670,-0.001413,-2.090495,-1.683756,-0.131199,0.999566,-0.002289,0.029383,0.003360,0.999329,-0.036462,-0.029280,0.036545,0.998903
31112,2,0,-67.0000,8.891317,-0.559843,4.162007,-0.000395,0.052814,0.020342,0.001169,0.033407,-0.019047,-0.475458,-0.016034,-0.915707,0.088920,-0.005607,0.041605,1.000000,0.000006,0.000167,-0.000095,0.999729,-0.018148,-0.014521,-0.001449,-2.077959,-1.666825,-0.135823,0.999574,-0.002370,0.029087,0.003424,0.999337,-0.036244,-0.028982,0.036328,0.998920
31113,2,0,-67.0000,8.796141,-0.583073,4.109605,0.007611,0.020163,-0.086411,0.006145,0.028567,-0.022284,-0.470763,-0.020385,-0.913435,0.087967,-0.005842,0.041083,1.000000,0.000031,0.000143,-0.000111,0.999733,-0.018016,-0.014398,-0.001466,-2.062805,-1.652728,-0.138319,0.999581,-0.002413,0.028842,0.003451,0.999347,-0.035980,-0.028736,0.036064,0.998936
31114,2,0,-67.0000,8.821471,-0.561209,4.123020,0.009344,0.041083,-0.059185,0.012071,0.015262,-0.022993,-0.473706,-0.014697,-0.908109,0.088217,-0.005625,0.041223,1.000000,0.000060,0.000076,-0.000115,0.999736,-0.017870,-0.014341,-0.001458,-2.046149,-1.646130,-0.137723,0.999584,-0.002403,0.028726,0.003428,0.999357,-0.035690,-0.028622,0.035773,0.998950
31115,2,0,-68.0000,8.888653,-0.569911,4.197969,-0.029258,0.037438,0.033816,0.010087,0.011104,-0.027790,-0.466775,-0.024916,-0.919017,0.088888,-0.005714,0.041974,1.000000,0.000050,0.000056,-0.000139,0.999740,-0.017710,-0.014307,-0.001466,-2.027750,-1.642213,-0.138951,0.999586,-0.002424,0.028658,0.003438,0.999368,-0.035369,-0.028554,0.035453,0.998963
31116,2,0,-68.0000,8.929898,-0.581017,4.231807,-0.041643,0.027366,0.086119,0.006658,0.021495,-0.023197,-0.474940,-0.017119,-0.909674,0.089303,-0.005822,0.042308,1.000000,0.000033,0.000107,-0.000116,0.999743,-0.017574,-0.014219,-0.001484,-2.012111,-1.632163,-0.141392,0.999591,-0.002467,0.028483,0.003466,0.999378,-0.035096,-0.028378,0.035181,0.998978
31117,2,0,-68.0000,8.912812,-0.579693,4.272810,-0.084088,0.028649,0.087983,0.008626,0.022259,-0.023705,-0.474281,-0.026403,-0.916852,0.089132,-0.005809,0.042718,1.000000,0.000043,0.000111,-0.000119,0.999747,-0.017431,-0.014127,-0.001496,-1.995751,-1.621646,-0.143178,0.999596,-0.002498,0.028299,0.003483,0.999388,-0.034811,-0.028195,0.034896,0.998993
31118,2,0,-68.0000,8.896112,-0.561123,4.283642,-0.098370,0.044666,0.076377,0.008527,0.016761,-0.024259,-0.464536,-0.024413,-0.914130,0.088964,-0.005624,0.042829,1.000000,0.000043,0.000084,-0.000121,0.999751,-0.017287,-0.014063,-0.001506,-1.979259,-1.614311,-0.144764,0.999600,-0.002526,0.028171,0.003498,0.999398,-0.034524,-0.028067,0.034609,0.999007
31119,2,0,-68.0000,8.937934,-0.538098,4.257551,-0.054417,0.064070,0.101741,0.004585,0.015239,-0.023248,-0.475822,-0.019267,-0.909500,0.089382,-0.005392,0.042569,1.000000,0.000023,0.000076,-0.000116,0.999754,-0.017157,-0.014006,-0.001539,-1.964256,-1.607812,-0.148864,0.999603,-0.002597,0.028058,0.003558,0.999407,-0.034263,-0.027952,0.034349,0.999019
31120,2,0,-68.0000,8.882536,-0.540663,4.235630,-0.057545,0.055750,0.042560,-0.000701,0.011374,-0.022084,-0.468083,-0.027188,-0.915342,0.088827,-0.005416,0.042351,1.000000,-0.000004,0.000057,-0.000110,0.999756,-0.017045,-0.013969,-0.001585,-1.951322,-1.603619,-0.154410,0.999605,-0.002694,0.027985,0.003646,0.999414,-0.034037,-0.027877,0.034126,0.999029
31121,2,0,-68.0000,8.817395,-0.578993,4.192589,-0.048578,0.010053,-0.032246,-0.004428,0.001858,-0.024453,-0.467312,-0.023076,-0.915459,0.088174,-0.005800,0.041925,1.000000,-0.000022,0.000009,-0.000122,0.999758,-0.016933,-0.013981,-0.001655,-1.938402,-1.605081,-0.162516,0.999604,-0.002835,0.028010,0.003782,0.999421,-0.033812,-0.027898,0.033904,0.999036
31122,2,0,-68.0000,8.789304,-0.544789,4.150170,-0.021582,0.037624,-0.077663,0.007038,-0.019966,-0.023987,-0.470726,-0.021818,-0.912085,0.087888,-0.005460,0.041510,1.000000,0.000035,-0.000100,-0.000120,0.999758,-0.016804,-0.014100,-0.001664,-1.923597,-1.618731,-0.163496,0.999597,-0.002852,0.028248,0.003800,0.999430,-0.033553,-0.028137,0.033647,0.999038
31123,2,0,-68.0000,8.841925,-0.537780,4.230973,-0.074234,0.050191,0.003725,0.000408,-0.026175,-0.022670,-0.469964,-0.021678,-0.914387,0.088413,-0.005388,0.042321,1.000000,0.000002,-0.000131,-0.000113,0.999758,-0.016698,-0.014249,-0.001699,-1.911347,-1.635936,-0.167446,0.999588,-0.002921,0.028549,0.003873,0.999437,-0.033340,-0.028435,0.033436,0.999036
31124,2,0,-68.0000,8.816814,-0.572496,4.247233,-0.104577,0.014080,-0.010044,-0.004588,-0.024734,-0.024743,-0.471084,-0.024085,-0.915188,0.088162,-0.005735,0.042483,1.000000,-0.000023,-0.000124,-0.000124,0.999757,-0.016593,-0.014393,-0.001761,-1.899146,-1.652538,-0.174401,0.999579,-0.003043,0.028838,0.003998,0.999443,-0.033127,-0.028721,0.033228,0.999035
31125,2,0,-68.0000,8.869745,-0.566100,4.327423,-0.157237,0.026639,0.071340,-0.011301,-0.033046,-0.018674,-0.471605,-0.018242,-0.908354,0.088690,-0.005667,0.043289,1.000000,-0.000057,-0.000165,-0.000093,0.999755,-0.016532,-0.014577,-0.001838,-1.892045,-1.673697,-0.183062,0.999568,-0.003194,0.029207,0.004158,0.999447,-0.033002,-0.029086,0.033110,0.999028
31126,2,0,-68.0000,8.951086,-0.627959,4.250370,-0.059037,-0.040068,0.115899,-0.011157,-0.006452,-0.018384,-0.472546,-0.020828,-0.915268,0.089509,-0.006285,0.042507,1.000000,-0.000056,-0.000032,-0.000092,0.999756,-0.016464,-0.014628,-0.001919,-1.884148,-1.679691,-0.192373,0.999565,-0.003356,0.029312,0.004319,0.999450,-0.032865,-0.029186,0.032977,0.999030
31127,2,0,-68.0000,8.757824,-0.538485,4.279581,-0.162469,0.044228,-0.051750,0.006443,0.013913,-0.019009,-0.470322,-0.022917,-0.906815,0.087581,-0.005395,0.042790,1.000000,0.000032,0.000070,-0.000095,0.999758,-0.016351,-0.014577,-0.001923,-1.871116,-1.673807,-0.193084,0.999568,-0.003368,0.029209,0.004322,0.999458,-0.032637,-0.029084,0.032750,0.999040
31128,2,0,-68.0000,8.712672,-0.506132,4.277569,-0.177690,0.073301,-0.095307,-0.006695,-0.000810,-0.015408,-0.470768,-0.029024,-0.907410,0.087126,-0.005067,0.042776,1.000000,-0.000033,-0.000004,-0.000077,0.999759,-0.016285,-0.014598,-0.001979,-1.863487,-1.676373,-0.199546,0.999566,-0.003481,0.029254,0.004432,0.999462,-0.032504,-0.029125,0.032620,0.999043
31129,2,0,-68.0000,8.670887,-0.525547,4.304244,-0.222086,0.053437,-0.120690,0.009039,-0.020185,-0.013490,-0.469471,-0.028392,-0.917375,0.086704,-0.005263,0.043051,1.000000,0.000045,-0.000101,-0.000067,0.999759,-0.016199,-0.014715,-0.001960,-1.853625,-1.689708,-0.197353,0.999559,-0.003443,0.029487,0.004396,0.999468,-0.032332,-0.029360,0.032448,0.999042
31130,2,0,-68.0000,8.676405,-0.453739,4.380860,-0.288751,0.129463,-0.087582,0.011306,-0.058583,-0.015753,-0.465344,-0.029809,-0.907424,0.086751,-0.004547,0.043834,1.000000,0.000057,-0.000293,-0.000079,0.999756,-0.016108,-0.015024,-0.001924,-1.843283,-1.724982,-0.192727,0.999541,-0.003362,0.030102,0.004330,0.999474,-0.032151,-0.029978,0.032267,0.999030
31131,2,0,-68.0000,8.853656,-0.489136,4.354998,-0.198818,0.095151,0.063744,0.013820,-0.072676,-0.016767,-0.470481,-0.021529,-0.910019,0.088520,-0.004902,0.043582,1.000000,0.000069,-0.000363,-0.000084,0.999751,-0.016011,-0.015402,-0.001883,-1.832185,-1.768186,-0.187550,0.999518,-0.003272,0.030856,0.004258,0.999480,-0.031957,-0.030735,0.032073,0.999013
31132,2,0,-68.0000,8.766694,-0.424887,4.344123,-0.229030,0.153527,-0.023365,0.022365,-0.061285,-0.024320,-0.477429,-0.024583,-0.910327,0.087653,-0.004264,0.043468,1.000000,0.000112,-0.000306,-0.000122,0.999749,-0.015859,-0.015726,-0.001815,-1.814807,-1.805196,-0.179404,0.999499,-0.003130,0.031501,0.004127,0.999490,-0.031653,-0.031386,0.031767,0.999002
31133,2,0,-68.0000,8.727457,-0.425708,4.336395,-0.245256,0.148427,-0.062207,0.015427,-0.065001,-0.020169,-0.474943,-0.022843,-0.913231,0.087260,-0.004269,0.043392,1.000000,0.000077,-0.000325,-0.000101,0.999745,-0.015742,-0.016068,-0.001767,-1.801471,-1.844290,-0.173536,0.999477,-0.003027,0.032183,0.004039,0.999498,-0.031420,-0.032072,0.031534,0.998988
31134,2,0,-68.0000,8.752672,-0.456802,4.232156,-0.148932,0.107841,-0.081539,0.011480,-0.066517,-0.019157,-0.473881,-0.025553,-0.911853,0.087512,-0.004579,0.042350,1.000000,0.000057,-0.000333,-0.000096,0.999741,-0.015639,-0.016417,-0.001735,-1.789589,-1.884244,-0.169463,0.999455,-0.002956,0.032880,0.003983,0.999505,-0.031212,-0.032772,0.031326,0.998972
31135,2,0,-68.0000,8.723195,-0.439776,4.275025,-0.205424,0.125363,-0.091296,0.007286,-0.055661,-0.020470,-0.464793,-0.023916,-0.905513,0.087220,-0.004408,0.042774,1.000000,0.000036,-0.000278,-0.000102,0.999738,-0.015536,-0.016713,-0.001728,-1.777754,-1.918083,-0.168267,0.999435,-0.002935,0.033471,0.003974,0.999511,-0.031005,-0.033363,0.031121,0.998959
31136,2,0,-68.0000,8.677867,-0.372505,4.267208,-0.219640,0.188632,-0.139561,0.004382,-0.063535,-0.021679,-0.472429,-0.029606,-0.905198,0.086765,-0.003735,0.042700,1.000000,0.000022,-0.000318,-0.000108,0.999734,-0.015435,-0.017049,-0.001734,-1.766190,-1.956556,-0.168588,0.999413,-0.002941,0.034142,0.003993,0.999517,-0.030803,-0.034035,0.030921,0.998942
31137,2,0,-68.0000,8.658868,-0.285668,4.270107,-0.231896,0.273033,-0.160585,0.002309,-0.069780,-0.021729,-0.475831,-0.025956,-0.903747,0.086573,-0.002867,0.042731,1.000000,0.000012,-0.000349,-0.000109,0.999729,-0.015341,-0.017415,-0.001752,-1.755300,-1.998500,-0.170147,0.999387,-0.002968,0.034873,0.004036,0.999523,-0.030612,-0.034766,0.030734,0.998923
31138,2,0,-68.0000,8.640142,-0.233093,4.332206,-0.300513,0.327919,-0.154709,-0.006645,-0.081040,-0.027671,-0.475387,-0.021828,-0.903972,0.086384,-0.002341,0.043357,1.000000,-0.000033,-0.000405,-0.000138,0.999723,-0.015243,-0.017840,-0.001817,-1.743850,-2.047399,-0.177079,0.999357,-0.003089,0.035726,0.004176,0.999529,-0.030412,-0.035615,0.030541,0.998899
31139,2,0,-68.0000,8.637952,-0.196381,4.384309,-0.355084,0.366568,-0.137230,-0.012805,-0.089904,-0.032967,-0.476716,-0.021843,-0.907130,0.086359,-0.001975,0.043882,1.000000,-0.000064,-0.000450,-0.000165,0.999716,-0.015137,-0.018313,-0.001918,-1.731486,-2.101702,-0.188094,0.999322,-0.003281,0.036673,0.004389,0.999534,-0.030195,-0.036557,0.030336,0.998871
31140,2,0,-67.0000,8.623269,-0.160682,4.414900,-0.396536,0.402018,-0.140095,-0.026482,-0.102200,-0.043796,-0.482521,-0.030258,-0.904459,0.086210,-0.001620,0.044193,1.000000,-0.000132,-0.000511,-0.000219,0.999707,-0.015016,-0.018851,-0.002103,-1.717093,-2.163678,-0.208644,0.999280,-0.003639,0.037754,0.004771,0.999540,-0.029943,-0.037628,0.030102,0.998838
31141,2,0,-67.0000,8.570075,-0.162480,4.442720,-0.454977,0.398403,-0.177097,-0.027305,-0.112846,-0.054636,-0.482338,-0.032571,-0.908111,0.085675,-0.001642,0.044476,1.000000,-0.000137,-0.000564,-0.000273,0.999698,-0.014851,-0.019447,-0.002314,-1.697613,-2.232240,-0.232184,0.999233,-0.004049,0.038950,0.005204,0.999548,-0.029602,-0.038813,0.029782,0.998803
31142,2,0,-66.0000,8.572789,-0.175855,4.522130,-0.538714,0.388085,-0.141469,-0.036964,-0.125871,-0.065543,-0.480506,-0.029771,-0.900554,0.085699,-0.001778,0.045276,1.000000,-0.000185,-0.000629,-0.000328,0.999687,-0.014661,-0.020111,-0.002589,-1.675129,-2.308806,-0.262967,0.999178,-0.004586,0.040285,0.005765,0.999557,-0.029209,-0.040134,0.029417,0.998761
31143,2,0,-66.0000,8.591616,-0.153005,4.501749,-0.523895,0.405794,-0.134574,-0.037841,-0.128708,-0.076797,-0.476920,-0.030392,-0.898266,0.085887,-0.001555,0.045073,1.000000,-0.000189,-0.000644,-0.000384,0.999676,-0.014423,-0.020794,-0.002898,-1.646966,-2.387497,-0.297828,0.999118,-0.005194,0.041658,0.006393,0.999567,-0.028716,-0.041490,0.028957,0.998719
31144,2,0,-66.0000,8.581819,-0.149120,4.529681,-0.566347,0.407051,-0.132738,-0.045254,-0.132263,-0.086145,-0.482661,-0.025236,-0.900008,0.085788,-0.001518,0.045354,1.000000,-0.000226,-0.000661,-0.000431,0.999663,-0.014161,-0.021498,-0.003253,-1.615839,-2.468677,-0.338033,0.999055,-0.005894,0.043073,0.007112,0.999578,-0.028172,-0.042889,0.028451,0.998675
31145,2,0,-66.0000,8.640044,-0.104007,4.540514,-0.562715,0.449077,-0.078258,-0.045606,-0.130985,-0.093411,-0.481441,-0.029795,-0.912125,0.086370,-0.001070,0.045462,1.000000,-0.000228,-0.000655,-0.000467,0.999651,-0.013866,-0.022198,-0.003625,-1.580936,-2.549373,-0.380327,0.998988,-0.006631,0.044480,0.007863,0.999589,-0.027562,-0.044279,0.027884,0.998630
31146,2,0,-65.0000,8.775937,-0.154910,4.594683,-0.572345,0.399763,0.069861,-0.048296,-0.123603,-0.103023,-0.489013,-0.033253,-0.901714,0.087730,-0.001583,0.046001,1.000000,-0.000241,-0.000618,-0.000515,0.999639,-0.013532,-0.022865,-0.004032,-1.541323,-2.626309,-0.426817,0.998922,-0.007441,0.045822,0.008679,0.999601,-0.026870,-0.045603,0.027238,0.998588
31147,2,0,-65.0000,8.895279,-0.172007,4.628703,-0.567845,0.381453,0.192936,-0.048007,-0.112758,-0.105715,-0.487537,-0.031770,-0.907116,0.088926,-0.001756,0.046338,1.000000,-0.000240,-0.000564,-0.000529,0.999628,-0.013182,-0.023477,-0.004447,-1.499802,-2.697024,-0.474480,0.998858,-0.008272,0.047055,0.009510,0.999613,-0.026144,-0.046820,0.026562,0.998550
31148,2,0,-64.0000,9.001548,-0.206995,4.672658,-0.578416,0.345194,0.309107,-0.048282,-0.106000,-0.112407,-0.487484,-0.033327,-0.901394,0.089990,-0.002109,0.046775,1.000000,-0.000241,-0.000530,-0.000562,0.999617,-0.012800,-0.024060,-0.004878,-1.454588,-2.764225,-0.524040,0.998795,-0.009135,0.048226,0.010367,0.999625,-0.025355,-0.047976,0.025824,0.998515
31149,2,0,-64.0000,9.036799,-0.248349,4.734222,-0.634051,0.302358,0.367922,-0.054390,-0.098197,-0.112209,-0.489952,-0.034426,-0.901785,0.090343,-0.002521,0.047387,1.000000,-0.000272,-0.000491,-0.000561,0.999606,-0.012430,-0.024603,-0.005337,-1.410596,-2.826911,-0.577012,0.998732,-0.010058,0.049319,0.011282,0.999634,-0.024587,-0.049054,0.025112,0.998480
31150,2,0,-64.0000,9.018959,-0.294845,4.714290,-0.637213,0.246807,0.345370,-0.056387,-0.096785,-0.116472,-0.485119,-0.034914,-0.892191,0.090165,-0.002988,0.047187,1.000000,-0.000282,-0.000484,-0.000582,0.999594,-0.012044,-0.025141,-0.005815,-1.364734,-2.889037,-0.632152,0.998668,-0.011019,0.050402,0.012230,0.999642,-0.023787,-0.050122,0.024371,0.998446
31151,2,0,-63.0000,8.943079,-0.329514,4.702285,-0.670388,0.202629,0.272363,-0.063784,-0.096964,-0.120488,-0.494028,-0.046934,-0.902181,0.089406,-0.003334,0.047067,1.000000,-0.000319,-0.000485,-0.000602,0.999582,-0.011657,-0.025681,-0.006334,-1.318433,-2.951416,-0.692202,0.998601,-0.012065,0.051489,0.013262,0.999648,-0.022978,-0.051194,0.023629,0.998409
31152,2,0,-63.0000,8.810602,-0.335284,4.608792,-0.650081,0.179939,0.113293,-0.069996,-0.094635,-0.120858,-0.498057,-0.030399,-0.904791,0.088082,-0.003390,0.046131,1.000000,-0.000350,-0.000473,-0.000604,0.999569,-0.011280,-0.026211,-0.006883,-1.273245,-3.012562,-0.755604,0.998531,-0.013169,0.052555,0.014352,0.999651,-0.022190,-0.052244,0.022911,0.998371
31153,2,0,-62.0000,8.717955,-0.337808,4.576782,-0.669138,0.166781,0.015243,-0.081474,-0.096195,-0.120026,-0.491184,-0.047238,-0.898696,0.087155,-0.003412,0.045811,1.000000,-0.000407,-0.000481,-0.000600,0.999554,-0.010932,-0.026749,-0.007484,-1.231095,-3.074645,-0.824976,0.998457,-0.014377,0.053637,0.015547,0.999649,-0.021454,-0.053310,0.022255,0.998330
31154,2,0,-62.0000,8.621369,-0.254520,4.396201,-0.547344,0.227478,-0.149974,-0.102507,-0.083116,-0.119560,-0.493974,-0.046144,-0.900019,0.086194,-0.002574,0.043999,1.000000,-0.000513,-0.000416,-0.000598,0.999539,-0.010627,-0.027221,-0.008179,-1.193600,-3.129416,-0.905094,0.998384,-0.015773,0.054591,0.016930,0.999640,-0.020800,-0.054244,0.021690,0.998292
31155,2,0,-62.0000,8.425613,-0.338193,4.262689,-0.518725,0.125097,-0.379177,-0.111918,-0.065229,-0.118421,-0.500138,-0.040912,-0.899903,0.084240,-0.003408,0.042656,1.000000,-0.000560,-0.000326,-0.000592,0.999526,-0.010338,-0.027605,-0.008841,-1.158023,-3.173864,-0.981518,0.998320,-0.017104,0.055366,0.018245,0.999630,-0.020179,-0.055000,0.021155,0.998262
31156,2,0,-61.0000,8.230590,-0.318879,4.210146,-0.555587,0.133234,-0.579963,-0.125176,-0.077607,-0.115769,-0.495505,-0.036247,-0.898968,0.082288,-0.003210,0.042135,1.000000,-0.000626,-0.000388,-0.000579,0.999509,-0.010098,-0.028049,-0.009632,-1.127423,-3.225467,-1.072480,0.998241,-0.018688,0.056265,0.019820,0.999611,-0.019645,-0.055876,0.020725,0.998223
31157,2,0,-61.0000,8.255090,-0.382517,4.222621,-0.570915,0.067716,-0.550246,-0.141739,-0.093091,-0.112457,-0.493092,-0.040250,-0.897455,0.082529,-0.003842,0.042267,0.999999,-0.000709,-0.000465,-0.000562,0.999489,-0.009910,-0.028571,-0.010395,-1.102873,-3.285879,-1.160101,0.998151,-0.020213,0.057318,0.021345,0.999587,-0.019216,-0.056906,0.020404,0.998171
31158,2,0,-60.0000,8.315094,-0.374131,4.235624,-0.568297,0.075545,-0.491068,-0.151352,-0.103595,-0.103270,-0.500284,-0.045557,-0.900103,0.083127,-0.003752,0.042402,0.999999,-0.000757,-0.000518,-0.000516,0.999464,-0.009790,-0.029140,-0.011272,-1.085503,-3.352014,-1.260586,0.998048,-0.021962,0.058470,0.023103,0.999554,-0.018912,-0.058029,0.020226,0.998110
31159,2,0,-60.0000,8.322622,-0.424909,4.315767,-0.652999,0.030870,-0.450793,-0.153951,-0.099394,-0.097076,-0.492828,-0.043065,-0.901421,0.083203,-0.004256,0.043202,0.999999,-0.000770,-0.000497,-0.000485,0.999439,-0.009699,-0.029687,-0.012060,-1.071756,-3.415375,-1.350696,0.997947,-0.023530,0.059574,0.024682,0.999521,-0.018671,-0.059106,0.020103,0.998049
31160,2,0,-60.0000,8.411397,-0.414766,4.309267,-0.621296,0.040408,-0.373103,-0.159573,-0.100747,-0.093078,-0.493727,-0.048755,-0.887825,0.084090,-0.004152,0.043138,0.999999,-0.000798,-0.000504,-0.000465,0.999412,-0.009641,-0.030239,-0.012953,-1.061300,-3.479508,-1.452875,0.997836,-0.025308,0.060692,0.026474,0.999479,-0.018488,-0.060192,0.020055,0.997985
31161,2,0,-60.0000,8.497239,-0.388442,4.333150,-0.616760,0.069238,-0.286673,-0.158288,-0.089418,-0.083493,-0.499184,-0.041643,-0.897923,0.084951,-0.003886,0.043373,0.999999,-0.000791,-0.000447,-0.000417,0.999387,-0.009617,-0.030729,-0.013735,-1.055105,-3.536522,-1.542161,0.997734,-0.026861,0.061685,0.028043,0.999438,-0.018379,-0.061156,0.020067,0.997926
31162,2,0,-59.0000,8.489908,-0.425386,4.364228,-0.660177,0.036269,-0.280173,-0.160404,-0.081096,-0.069422,-0.499427,-0.046045,-0.898348,0.084880,-0.004248,0.043680,1.000000,-0.000802,-0.000405,-0.000347,0.999361,-0.009661,-0.031174,-0.014585,-1.056431,-3.588472,-1.639195,0.997631,-0.028549,0.062590,0.029754,0.999388,-0.018401,-0.062026,0.020220,0.997870
31163,2,0,-59.0000,8.425335,-0.470370,4.434002,-0.761743,-0.000264,-0.310707,-0.160503,-0.077589,-0.060298,-0.498133,-0.038873,-0.892981,0.084235,-0.004693,0.044376,1.000000,-0.000803,-0.000388,-0.000301,0.999336,-0.009743,-0.031597,-0.015324,-1.062489,-3.637868,-1.723257,0.997534,-0.030011,0.063450,0.031243,0.999340,-0.018506,-0.062853,0.020442,0.997813
31164,2,0,-59.0000,8.514788,-0.620851,4.494695,-0.804268,-0.140864,-0.199017,-0.155820,-0.097296,-0.051712,-0.512717,-0.051362,-0.895713,0.085124,-0.006195,0.044993,1.000000,-0.000779,-0.000486,-0.000259,0.999306,-0.009863,-0.032115,-0.016113,-1.072457,-3.698348,-1.812935,0.997418,-0.031571,0.064504,0.032838,0.999286,-0.018678,-0.063868,0.020748,0.997743
31165,2,0,-58.0000,8.657160,-0.731404,4.575165,-0.842965,-0.239379,-0.032830,-0.133868,-0.118450,-0.046242,-0.500847,-0.048885,-0.888867,0.086543,-0.007303,0.045808,1.000000,-0.000669,-0.000592,-0.000231,0.999275,-0.009967,-0.032737,-0.016694,-1.081049,-3.770486,-1.878656,0.997299,-0.032712,0.065760,0.034017,0.999244,-0.018826,-0.065094,0.021012,0.997658
31166,2,0,-58.0000,8.787108,-0.861322,4.722464,-0.952073,-0.351155,0.148590,-0.108756,-0.137586,-0.051564,-0.504250,-0.054136,-0.899734,0.087836,-0.008610,0.047290,1.000000,-0.000544,-0.000688,-0.000258,0.999241,-0.010002,-0.033456,-0.017263,-1.081601,-3.853554,-1.943124,0.997165,-0.033831,0.067207,0.035169,0.999204,-0.018834,-0.066516,0.021144,0.997561
31167,2,0,-58.0000,8.839334,-0.911450,4.857692,-1.076074,-0.386548,0.249835,-0.066148,-0.164796,-0.049643,-0.513949,-0.050407,-0.890160,0.088351,-0.009120,0.048653,1.000000,-0.000331,-0.000824,-0.000248,0.999208,-0.009963,-0.034308,-0.017545,-1.074362,-3.951483,-1.974800,0.997030,-0.034378,0.068912,0.035745,0.999186,-0.018705,-0.068213,0.021113,0.997447
